welcomeKey_resp.keys,welcomeKey_resp.rt,X Scale,Y Scale,rt_resp_4.keys,rt_resp_4.corr,rt_resp_4.rt,speedtest_2.thisRepN,speedtest_2.thisTrialN,speedtest_2.thisN,speedtest_2.thisIndex,speedtest_2.ran,numberSc,posX,positionLayout,participant,date,expName,psychopyVersion,OS,frameRate,ct_instrresp.keys,ct_instrresp.rt,key_resp_2.keys,key_resp_2.rt,ct_keyResp.keys,ct_keyResp.corr,ct_keyResp.rt,trials.thisRepN,trials.thisTrialN,trials.thisN,trials.thisIndex,trials.ran,leftNo,rightNo,displayProblem,numDistance,leftNo_size,rightNo_size,Dims,keyAnswer,TS_Loop.thisRepN,TS_Loop.thisTrialN,TS_Loop.thisN,TS_Loop.thisIndex,TS_Loop.ran,Condition,ActionInst,instrImage,mltptaskInst_resp.keys,mltptaskInst_resp.rt,continue_resp_2.keys,continue_resp_2.rt,multp_Answer,multi_RT,multiplyCorr,LoopingMultiply.thisRepN,LoopingMultiply.thisTrialN,LoopingMultiply.thisN,LoopingMultiply.thisIndex,LoopingMultiply.ran,factor1,multiplySign,factor2,multliplyProblem,physicalSize,orderOperand,sizeF1,sizeF2,mult_answer,trials_stroop.thisRepN,trials_stroop.thisTrialN,trials_stroop.thisN,trials_stroop.thisIndex,trials_stroop.ran,multiplicationFile,esckey_resp_2.keys,esckey_resp_2.rt
y,11.2524,42.3,43,left,1,0.5232,0,0,0,2,1,3,-200,left,827,2022-01-12_18h45.21.490,multiplicationStroop,2021.2.3,Win32,60.52536013,,,,,,,,,,,,,,,,,,,,,,,,,,,,,,,,,,,,,,,,,,,,,,,,,,,,,,,,,
,,,,left,1,0.4068,0,1,1,6,1,8,-200,left,827,2022-01-12_18h45.21.490,multiplicationStroop,2021.2.3,Win32,60.52536013,,,,,,,,,,,,,,,,,,,,,,,,,,,,,,,,,,,,,,,,,,,,,,,,,,,,,,,,,
,,,,right,1,0.3238,0,2,2,12,1,6,200,right,827,2022-01-12_18h45.21.490,multiplicationStroop,2021.2.3,Win32,60.52536013,,,,,,,,,,,,,,,,,,,,,,,,,,,,,,,,,,,,,,,,,,,,,,,,,,,,,,,,,
,,,,left,1,0.3172,0,3,3,5,1,7,-200,left,827,2022-01-12_18h45.21.490,multiplicationStroop,2021.2.3,Win32,60.52536013,,,,,,,,,,,,,,,,,,,,,,,,,,,,,,,,,,,,,,,,,,,,,,,,,,,,,,,,,
,,,,left,1,0.3506,0,4,4,0,1,1,-200,left,827,2022-01-12_18h45.21.490,multiplicationStroop,2021.2.3,Win32,60.52536013,,,,,,,,,,,,,,,,,,,,,,,,,,,,,,,,,,,,,,,,,,,,,,,,,,,,,,,,,
,,,,right,1,0.2957,0,5,5,9,1,2,200,right,827,2022-01-12_18h45.21.490,multiplicationStroop,2021.2.3,Win32,60.52536013,,,,,,,,,,,,,,,,,,,,,,,,,,,,,,,,,,,,,,,,,,,,,,,,,,,,,,,,,
,,,,right,1,0.3588,0,6,6,8,1,1,200,right,827,2022-01-12_18h45.21.490,multiplicationStroop,2021.2.3,Win32,60.52536013,,,,,,,,,,,,,,,,,,,,,,,,,,,,,,,,,,,,,,,,,,,,,,,,,,,,,,,,,
,,,,right,1,0.313,0,7,7,15,1,9,200,right,827,2022-01-12_18h45.21.490,multiplicationStroop,2021.2.3,Win32,60.52536013,,,,,,,,,,,,,,,,,,,,,,,,,,,,,,,,,,,,,,,,,,,,,,,,,,,,,,,,,
,,,,left,1,0.2923,0,8,8,4,1,6,-200,left,827,2022-01-12_18h45.21.490,multiplicationStroop,2021.2.3,Win32,60.52536013,,,,,,,,,,,,,,,,,,,,,,,,,,,,,,,,,,,,,,,,,,,,,,,,,,,,,,,,,
,,,,left,1,0.3586,0,9,9,3,1,4,-200,left,827,2022-01-12_18h45.21.490,multiplicationStroop,2021.2.3,Win32,60.52536013,,,,,,,,,,,,,,,,,,,,,,,,,,,,,,,,,,,,,,,,,,,,,,,,,,,,,,,,,
,,,,right,1,0.2885,0,10,10,14,1,8,200,right,827,2022-01-12_18h45.21.490,multiplicationStroop,2021.2.3,Win32,60.52536013,,,,,,,,,,,,,,,,,,,,,,,,,,,,,,,,,,,,,,,,,,,,,,,,,,,,,,,,,
,,,,right,1,0.3582,0,11,11,13,1,7,200,right,827,2022-01-12_18h45.21.490,multiplicationStroop,2021.2.3,Win32,60.52536013,,,,,,,,,,,,,,,,,,,,,,,,,,,,,,,,,,,,,,,,,,,,,,,,,,,,,,,,,
,,,,left,1,0.3014,0,12,12,7,1,9,-200,left,827,2022-01-12_18h45.21.490,multiplicationStroop,2021.2.3,Win32,60.52536013,,,,,,,,,,,,,,,,,,,,,,,,,,,,,,,,,,,,,,,,,,,,,,,,,,,,,,,,,
,,,,right,1,0.1033,0,13,13,10,1,3,200,right,827,2022-01-12_18h45.21.490,multiplicationStroop,2021.2.3,Win32,60.52536013,,,,,,,,,,,,,,,,,,,,,,,,,,,,,,,,,,,,,,,,,,,,,,,,,,,,,,,,,
,,,,left,1,0.226,0,14,14,1,1,2,-200,left,827,2022-01-12_18h45.21.490,multiplicationStroop,2021.2.3,Win32,60.52536013,,,,,,,,,,,,,,,,,,,,,,,,,,,,,,,,,,,,,,,,,,,,,,,,,,,,,,,,,
,,,,right,1,0.1062,0,15,15,11,1,4,200,right,827,2022-01-12_18h45.21.490,multiplicationStroop,2021.2.3,Win32,60.52536013,,,,,,,,,,,,,,,,,,,,,,,,,,,,,,,,,,,,,,,,,,,,,,,,,,,,,,,,,
,,,,left,0,0.1532,1,0,16,13,1,7,200,right,827,2022-01-12_18h45.21.490,multiplicationStroop,2021.2.3,Win32,60.52536013,,,,,,,,,,,,,,,,,,,,,,,,,,,,,,,,,,,,,,,,,,,,,,,,,,,,,,,,,
,,,,right,1,0.5185,1,1,17,10,1,3,200,right,827,2022-01-12_18h45.21.490,multiplicationStroop,2021.2.3,Win32,60.52536013,,,,,,,,,,,,,,,,,,,,,,,,,,,,,,,,,,,,,,,,,,,,,,,,,,,,,,,,,
,,,,left,1,0.3329,1,2,18,2,1,3,-200,left,827,2022-01-12_18h45.21.490,multiplicationStroop,2021.2.3,Win32,60.52536013,,,,,,,,,,,,,,,,,,,,,,,,,,,,,,,,,,,,,,,,,,,,,,,,,,,,,,,,,
,,,,right,1,0.3008,1,3,19,14,1,8,200,right,827,2022-01-12_18h45.21.490,multiplicationStroop,2021.2.3,Win32,60.52536013,,,,,,,,,,,,,,,,,,,,,,,,,,,,,,,,,,,,,,,,,,,,,,,,,,,,,,,,,
,,,,left,1,0.3182,1,4,20,6,1,8,-200,left,827,2022-01-12_18h45.21.490,multiplicationStroop,2021.2.3,Win32,60.52536013,,,,,,,,,,,,,,,,,,,,,,,,,,,,,,,,,,,,,,,,,,,,,,,,,,,,,,,,,
,,,,right,1,0.2678,1,5,21,9,1,2,200,right,827,2022-01-12_18h45.21.490,multiplicationStroop,2021.2.3,Win32,60.52536013,,,,,,,,,,,,,,,,,,,,,,,,,,,,,,,,,,,,,,,,,,,,,,,,,,,,,,,,,
,,,,right,1,0.2906,1,6,22,12,1,6,200,right,827,2022-01-12_18h45.21.490,multiplicationStroop,2021.2.3,Win32,60.52536013,,,,,,,,,,,,,,,,,,,,,,,,,,,,,,,,,,,,,,,,,,,,,,,,,,,,,,,,,
,,,,right,1,0.2908,1,7,23,15,1,9,200,right,827,2022-01-12_18h45.21.490,multiplicationStroop,2021.2.3,Win32,60.52536013,,,,,,,,,,,,,,,,,,,,,,,,,,,,,,,,,,,,,,,,,,,,,,,,,,,,,,,,,
,,,,left,1,0.3192,1,8,24,1,1,2,-200,left,827,2022-01-12_18h45.21.490,multiplicationStroop,2021.2.3,Win32,60.52536013,,,,,,,,,,,,,,,,,,,,,,,,,,,,,,,,,,,,,,,,,,,,,,,,,,,,,,,,,
,,,,left,1,0.4674,1,9,25,4,1,6,-200,left,827,2022-01-12_18h45.21.490,multiplicationStroop,2021.2.3,Win32,60.52536013,,,,,,,,,,,,,,,,,,,,,,,,,,,,,,,,,,,,,,,,,,,,,,,,,,,,,,,,,
,,,,left,1,0.3503,1,10,26,0,1,1,-200,left,827,2022-01-12_18h45.21.490,multiplicationStroop,2021.2.3,Win32,60.52536013,,,,,,,,,,,,,,,,,,,,,,,,,,,,,,,,,,,,,,,,,,,,,,,,,,,,,,,,,
,,,,left,1,0.3524,1,11,27,5,1,7,-200,left,827,2022-01-12_18h45.21.490,multiplicationStroop,2021.2.3,Win32,60.52536013,,,,,,,,,,,,,,,,,,,,,,,,,,,,,,,,,,,,,,,,,,,,,,,,,,,,,,,,,
,,,,left,1,0.3124,1,12,28,3,1,4,-200,left,827,2022-01-12_18h45.21.490,multiplicationStroop,2021.2.3,Win32,60.52536013,,,,,,,,,,,,,,,,,,,,,,,,,,,,,,,,,,,,,,,,,,,,,,,,,,,,,,,,,
,,,,left,1,0.3011,1,13,29,7,1,9,-200,left,827,2022-01-12_18h45.21.490,multiplicationStroop,2021.2.3,Win32,60.52536013,,,,,,,,,,,,,,,,,,,,,,,,,,,,,,,,,,,,,,,,,,,,,,,,,,,,,,,,,
,,,,right,1,0.3708,1,14,30,8,1,1,200,right,827,2022-01-12_18h45.21.490,multiplicationStroop,2021.2.3,Win32,60.52536013,,,,,,,,,,,,,,,,,,,,,,,,,,,,,,,,,,,,,,,,,,,,,,,,,,,,,,,,,
,,,,right,1,0.3173,1,15,31,11,1,4,200,right,827,2022-01-12_18h45.21.490,multiplicationStroop,2021.2.3,Win32,60.52536013,,,,,,,,,,,,,,,,,,,,,,,,,,,,,,,,,,,,,,,,,,,,,,,,,,,,,,,,,
,,,,right,1,0.2689,2,0,32,12,1,6,200,right,827,2022-01-12_18h45.21.490,multiplicationStroop,2021.2.3,Win32,60.52536013,,,,,,,,,,,,,,,,,,,,,,,,,,,,,,,,,,,,,,,,,,,,,,,,,,,,,,,,,
,,,,left,1,0.3086,2,1,33,2,1,3,-200,left,827,2022-01-12_18h45.21.490,multiplicationStroop,2021.2.3,Win32,60.52536013,,,,,,,,,,,,,,,,,,,,,,,,,,,,,,,,,,,,,,,,,,,,,,,,,,,,,,,,,
,,,,left,1,0.436,2,2,34,0,1,1,-200,left,827,2022-01-12_18h45.21.490,multiplicationStroop,2021.2.3,Win32,60.52536013,,,,,,,,,,,,,,,,,,,,,,,,,,,,,,,,,,,,,,,,,,,,,,,,,,,,,,,,,
,,,,right,1,0.2869,2,3,35,8,1,1,200,right,827,2022-01-12_18h45.21.490,multiplicationStroop,2021.2.3,Win32,60.52536013,,,,,,,,,,,,,,,,,,,,,,,,,,,,,,,,,,,,,,,,,,,,,,,,,,,,,,,,,
,,,,left,1,0.2565,2,4,36,7,1,9,-200,left,827,2022-01-12_18h45.21.490,multiplicationStroop,2021.2.3,Win32,60.52536013,,,,,,,,,,,,,,,,,,,,,,,,,,,,,,,,,,,,,,,,,,,,,,,,,,,,,,,,,
,,,,right,0,0.0606,2,5,37,6,1,8,-200,left,827,2022-01-12_18h45.21.490,multiplicationStroop,2021.2.3,Win32,60.52536013,,,,,,,,,,,,,,,,,,,,,,,,,,,,,,,,,,,,,,,,,,,,,,,,,,,,,,,,,
,,,,right,1,0.5949,2,6,38,14,1,8,200,right,827,2022-01-12_18h45.21.490,multiplicationStroop,2021.2.3,Win32,60.52536013,,,,,,,,,,,,,,,,,,,,,,,,,,,,,,,,,,,,,,,,,,,,,,,,,,,,,,,,,
,,,,right,1,0.3674,2,7,39,10,1,3,200,right,827,2022-01-12_18h45.21.490,multiplicationStroop,2021.2.3,Win32,60.52536013,,,,,,,,,,,,,,,,,,,,,,,,,,,,,,,,,,,,,,,,,,,,,,,,,,,,,,,,,
,,,,left,1,0.3111,2,8,40,1,1,2,-200,left,827,2022-01-12_18h45.21.490,multiplicationStroop,2021.2.3,Win32,60.52536013,,,,,,,,,,,,,,,,,,,,,,,,,,,,,,,,,,,,,,,,,,,,,,,,,,,,,,,,,
,,,,left,1,0.4174,2,9,41,3,1,4,-200,left,827,2022-01-12_18h45.21.490,multiplicationStroop,2021.2.3,Win32,60.52536013,,,,,,,,,,,,,,,,,,,,,,,,,,,,,,,,,,,,,,,,,,,,,,,,,,,,,,,,,
,,,,right,1,0.376,2,10,42,13,1,7,200,right,827,2022-01-12_18h45.21.490,multiplicationStroop,2021.2.3,Win32,60.52536013,,,,,,,,,,,,,,,,,,,,,,,,,,,,,,,,,,,,,,,,,,,,,,,,,,,,,,,,,
,,,,right,1,0.388,2,11,43,9,1,2,200,right,827,2022-01-12_18h45.21.490,multiplicationStroop,2021.2.3,Win32,60.52536013,,,,,,,,,,,,,,,,,,,,,,,,,,,,,,,,,,,,,,,,,,,,,,,,,,,,,,,,,
,,,,left,1,0.3174,2,12,44,5,1,7,-200,left,827,2022-01-12_18h45.21.490,multiplicationStroop,2021.2.3,Win32,60.52536013,,,,,,,,,,,,,,,,,,,,,,,,,,,,,,,,,,,,,,,,,,,,,,,,,,,,,,,,,
,,,,right,1,0.2952,2,13,45,15,1,9,200,right,827,2022-01-12_18h45.21.490,multiplicationStroop,2021.2.3,Win32,60.52536013,,,,,,,,,,,,,,,,,,,,,,,,,,,,,,,,,,,,,,,,,,,,,,,,,,,,,,,,,
,,,,right,1,0.4012,2,14,46,11,1,4,200,right,827,2022-01-12_18h45.21.490,multiplicationStroop,2021.2.3,Win32,60.52536013,,,,,,,,,,,,,,,,,,,,,,,,,,,,,,,,,,,,,,,,,,,,,,,,,,,,,,,,,
,,,,left,1,0.2855,2,15,47,4,1,6,-200,left,827,2022-01-12_18h45.21.490,multiplicationStroop,2021.2.3,Win32,60.52536013,,,,,,,,,,,,,,,,,,,,,,,,,,,,,,,,,,,,,,,,,,,,,,,,,,,,,,,,,
,,,,left,1,0.4842,3,0,48,0,1,1,-200,left,827,2022-01-12_18h45.21.490,multiplicationStroop,2021.2.3,Win32,60.52536013,,,,,,,,,,,,,,,,,,,,,,,,,,,,,,,,,,,,,,,,,,,,,,,,,,,,,,,,,
,,,,right,1,0.2705,3,1,49,12,1,6,200,right,827,2022-01-12_18h45.21.490,multiplicationStroop,2021.2.3,Win32,60.52536013,,,,,,,,,,,,,,,,,,,,,,,,,,,,,,,,,,,,,,,,,,,,,,,,,,,,,,,,,
,,,,left,1,0.3334,3,2,50,1,1,2,-200,left,827,2022-01-12_18h45.21.490,multiplicationStroop,2021.2.3,Win32,60.52536013,,,,,,,,,,,,,,,,,,,,,,,,,,,,,,,,,,,,,,,,,,,,,,,,,,,,,,,,,
,,,,left,1,0.3368,3,3,51,7,1,9,-200,left,827,2022-01-12_18h45.21.490,multiplicationStroop,2021.2.3,Win32,60.52536013,,,,,,,,,,,,,,,,,,,,,,,,,,,,,,,,,,,,,,,,,,,,,,,,,,,,,,,,,
,,,,left,1,0.2893,3,4,52,4,1,6,-200,left,827,2022-01-12_18h45.21.490,multiplicationStroop,2021.2.3,Win32,60.52536013,,,,,,,,,,,,,,,,,,,,,,,,,,,,,,,,,,,,,,,,,,,,,,,,,,,,,,,,,
,,,,right,1,0.3058,3,5,53,14,1,8,200,right,827,2022-01-12_18h45.21.490,multiplicationStroop,2021.2.3,Win32,60.52536013,,,,,,,,,,,,,,,,,,,,,,,,,,,,,,,,,,,,,,,,,,,,,,,,,,,,,,,,,
,,,,right,1,0.294,3,6,54,15,1,9,200,right,827,2022-01-12_18h45.21.490,multiplicationStroop,2021.2.3,Win32,60.52536013,,,,,,,,,,,,,,,,,,,,,,,,,,,,,,,,,,,,,,,,,,,,,,,,,,,,,,,,,
,,,,right,1,0.3006,3,7,55,9,1,2,200,right,827,2022-01-12_18h45.21.490,multiplicationStroop,2021.2.3,Win32,60.52536013,,,,,,,,,,,,,,,,,,,,,,,,,,,,,,,,,,,,,,,,,,,,,,,,,,,,,,,,,
,,,,right,1,0.3012,3,8,56,10,1,3,200,right,827,2022-01-12_18h45.21.490,multiplicationStroop,2021.2.3,Win32,60.52536013,,,,,,,,,,,,,,,,,,,,,,,,,,,,,,,,,,,,,,,,,,,,,,,,,,,,,,,,,
,,,,left,1,0.3419,3,9,57,3,1,4,-200,left,827,2022-01-12_18h45.21.490,multiplicationStroop,2021.2.3,Win32,60.52536013,,,,,,,,,,,,,,,,,,,,,,,,,,,,,,,,,,,,,,,,,,,,,,,,,,,,,,,,,
,,,,right,1,0.2689,3,10,58,8,1,1,200,right,827,2022-01-12_18h45.21.490,multiplicationStroop,2021.2.3,Win32,60.52536013,,,,,,,,,,,,,,,,,,,,,,,,,,,,,,,,,,,,,,,,,,,,,,,,,,,,,,,,,
,,,,left,1,0.2684,3,11,59,6,1,8,-200,left,827,2022-01-12_18h45.21.490,multiplicationStroop,2021.2.3,Win32,60.52536013,,,,,,,,,,,,,,,,,,,,,,,,,,,,,,,,,,,,,,,,,,,,,,,,,,,,,,,,,
,,,,right,1,0.2748,3,12,60,11,1,4,200,right,827,2022-01-12_18h45.21.490,multiplicationStroop,2021.2.3,Win32,60.52536013,,,,,,,,,,,,,,,,,,,,,,,,,,,,,,,,,,,,,,,,,,,,,,,,,,,,,,,,,
,,,,left,0,0.268,3,13,61,13,1,7,200,right,827,2022-01-12_18h45.21.490,multiplicationStroop,2021.2.3,Win32,60.52536013,,,,,,,,,,,,,,,,,,,,,,,,,,,,,,,,,,,,,,,,,,,,,,,,,,,,,,,,,
,,,,left,1,0.4585,3,14,62,5,1,7,-200,left,827,2022-01-12_18h45.21.490,multiplicationStroop,2021.2.3,Win32,60.52536013,,,,,,,,,,,,,,,,,,,,,,,,,,,,,,,,,,,,,,,,,,,,,,,,,,,,,,,,,
,,,,left,1,0.3506,3,15,63,2,1,3,-200,left,827,2022-01-12_18h45.21.490,multiplicationStroop,2021.2.3,Win32,60.52536013,,,,,,,,,,,,,,,,,,,,,,,,,,,,,,,,,,,,,,,,,,,,,,,,,,,,,,,,,
,,,,,,,,,,,,,,,827,2022-01-12_18h45.21.490,multiplicationStroop,2021.2.3,Win32,60.52536013,space,16.5624,space,4.755,left,1,0.5275,0,0,0,71,1,9,4,9 | 4,5,1.6933,1.6933,neutral,left,,,,,,stimulusFile/magnitude.xlsx,,,,,,,,,,,,,,,,,,,,,,,,,,,,,,,
,,,,,,,,,,,,,,,827,2022-01-12_18h45.21.490,multiplicationStroop,2021.2.3,Win32,60.52536013,,,,,left,1,0.5407,0,1,1,7,1,9,8,9 | 8,1,1.9756,1.4111,congruent,left,,,,,,stimulusFile/magnitude.xlsx,,,,,,,,,,,,,,,,,,,,,,,,,,,,,,,
,,,,,,,,,,,,,,,827,2022-01-12_18h45.21.490,multiplicationStroop,2021.2.3,Win32,60.52536013,,,,,right,1,0.918,0,2,2,3,1,8,9,8 | 9,1,1.4111,1.9756,congruent,right,,,,,,stimulusFile/magnitude.xlsx,,,,,,,,,,,,,,,,,,,,,,,,,,,,,,,
,,,,,,,,,,,,,,,827,2022-01-12_18h45.21.490,multiplicationStroop,2021.2.3,Win32,60.52536013,,,,,right,1,0.7394,0,3,3,16,1,1,6,1 | 6,5,1.4111,1.9756,congruent,right,,,,,,stimulusFile/magnitude.xlsx,,,,,,,,,,,,,,,,,,,,,,,,,,,,,,,
,,,,,,,,,,,,,,,827,2022-01-12_18h45.21.490,multiplicationStroop,2021.2.3,Win32,60.52536013,,,,,right,1,0.8693,0,4,4,56,1,1,3,1 | 3,2,1.6933,1.6933,neutral,right,,,,,,stimulusFile/magnitude.xlsx,,,,,,,,,,,,,,,,,,,,,,,,,,,,,,,
,,,,,,,,,,,,,,,827,2022-01-12_18h45.21.490,multiplicationStroop,2021.2.3,Win32,60.52536013,,,,,right,1,0.6127,0,5,5,19,1,4,9,4 | 9,5,1.4111,1.9756,congruent,right,,,,,,stimulusFile/magnitude.xlsx,,,,,,,,,,,,,,,,,,,,,,,,,,,,,,,
,,,,,,,,,,,,,,,827,2022-01-12_18h45.21.490,multiplicationStroop,2021.2.3,Win32,60.52536013,,,,,left,1,0.7601,0,6,6,30,1,7,6,7 | 6,1,1.4111,1.9756,incongruent,left,,,,,,stimulusFile/magnitude.xlsx,,,,,,,,,,,,,,,,,,,,,,,,,,,,,,,
,,,,,,,,,,,,,,,827,2022-01-12_18h45.21.490,multiplicationStroop,2021.2.3,Win32,60.52536013,,,,,left,1,0.6349,0,7,7,69,1,7,2,7 | 2,5,1.6933,1.6933,neutral,left,,,,,,stimulusFile/magnitude.xlsx,,,,,,,,,,,,,,,,,,,,,,,,,,,,,,,
,,,,,,,,,,,,,,,827,2022-01-12_18h45.21.490,multiplicationStroop,2021.2.3,Win32,60.52536013,,,,,right,1,0.7831,0,8,8,51,1,8,9,8 | 9,1,1.6933,1.6933,neutral,right,,,,,,stimulusFile/magnitude.xlsx,,,,,,,,,,,,,,,,,,,,,,,,,,,,,,,
,,,,,,,,,,,,,,,827,2022-01-12_18h45.21.490,multiplicationStroop,2021.2.3,Win32,60.52536013,,,,,right,1,0.83,0,9,9,34,1,6,8,6 | 8,2,1.9756,1.4111,incongruent,right,,,,,,stimulusFile/magnitude.xlsx,,,,,,,,,,,,,,,,,,,,,,,,,,,,,,,
,,,,,,,,,,,,,,,827,2022-01-12_18h45.21.490,multiplicationStroop,2021.2.3,Win32,60.52536013,,,,,right,1,1.0161,0,10,10,35,1,7,9,7 | 9,2,1.9756,1.4111,incongruent,right,,,,,,stimulusFile/magnitude.xlsx,,,,,,,,,,,,,,,,,,,,,,,,,,,,,,,
,,,,,,,,,,,,,,,827,2022-01-12_18h45.21.490,multiplicationStroop,2021.2.3,Win32,60.52536013,,,,,right,1,0.5909,0,11,11,17,1,2,7,2 | 7,5,1.4111,1.9756,congruent,right,,,,,,stimulusFile/magnitude.xlsx,,,,,,,,,,,,,,,,,,,,,,,,,,,,,,,
,,,,,,,,,,,,,,,827,2022-01-12_18h45.21.490,multiplicationStroop,2021.2.3,Win32,60.52536013,,,,,left,1,0.6091,0,12,12,31,1,9,8,9 | 8,1,1.4111,1.9756,incongruent,left,,,,,,stimulusFile/magnitude.xlsx,,,,,,,,,,,,,,,,,,,,,,,,,,,,,,,
,,,,,,,,,,,,,,,827,2022-01-12_18h45.21.490,multiplicationStroop,2021.2.3,Win32,60.52536013,,,,,right,1,0.6169,0,13,13,0,1,1,2,1 | 2,1,1.4111,1.9756,congruent,right,,,,,,stimulusFile/magnitude.xlsx,,,,,,,,,,,,,,,,,,,,,,,,,,,,,,,
,,,,,,,,,,,,,,,827,2022-01-12_18h45.21.490,multiplicationStroop,2021.2.3,Win32,60.52536013,,,,,right,1,0.6569,0,14,14,50,1,6,7,6 | 7,1,1.6933,1.6933,neutral,right,,,,,,stimulusFile/magnitude.xlsx,,,,,,,,,,,,,,,,,,,,,,,,,,,,,,,
,,,,,,,,,,,,,,,827,2022-01-12_18h45.21.490,multiplicationStroop,2021.2.3,Win32,60.52536013,,,,,left,1,1.0846,0,15,15,70,1,8,3,8 | 3,5,1.6933,1.6933,neutral,left,,,,,,stimulusFile/magnitude.xlsx,,,,,,,,,,,,,,,,,,,,,,,,,,,,,,,
,,,,,,,,,,,,,,,827,2022-01-12_18h45.21.490,multiplicationStroop,2021.2.3,Win32,60.52536013,,,,,left,1,0.5827,0,16,16,23,1,9,4,9 | 4,5,1.9756,1.4111,congruent,left,,,,,,stimulusFile/magnitude.xlsx,,,,,,,,,,,,,,,,,,,,,,,,,,,,,,,
,,,,,,,,,,,,,,,827,2022-01-12_18h45.21.490,multiplicationStroop,2021.2.3,Win32,60.52536013,,,,,left,1,0.5852,0,17,17,6,1,7,6,7 | 6,1,1.9756,1.4111,congruent,left,,,,,,stimulusFile/magnitude.xlsx,,,,,,,,,,,,,,,,,,,,,,,,,,,,,,,
,,,,,,,,,,,,,,,827,2022-01-12_18h45.21.490,multiplicationStroop,2021.2.3,Win32,60.52536013,,,,,left,1,0.5375,0,18,18,45,1,7,2,7 | 2,5,1.4111,1.9756,incongruent,left,,,,,,stimulusFile/magnitude.xlsx,,,,,,,,,,,,,,,,,,,,,,,,,,,,,,,
,,,,,,,,,,,,,,,827,2022-01-12_18h45.21.490,multiplicationStroop,2021.2.3,Win32,60.52536013,,,,,right,1,0.5554,0,19,19,11,1,7,9,7 | 9,2,1.4111,1.9756,congruent,right,,,,,,stimulusFile/magnitude.xlsx,,,,,,,,,,,,,,,,,,,,,,,,,,,,,,,
,,,,,,,,,,,,,,,827,2022-01-12_18h45.21.490,multiplicationStroop,2021.2.3,Win32,60.52536013,,,,,left,1,0.66,0,20,20,38,1,8,6,8 | 6,2,1.4111,1.9756,incongruent,left,,,,,,stimulusFile/magnitude.xlsx,,,,,,,,,,,,,,,,,,,,,,,,,,,,,,,
,,,,,,,,,,,,,,,827,2022-01-12_18h45.21.490,multiplicationStroop,2021.2.3,Win32,60.52536013,,,,,left,1,0.8351,0,21,21,60,1,3,1,3 | 1,2,1.6933,1.6933,neutral,left,,,,,,stimulusFile/magnitude.xlsx,,,,,,,,,,,,,,,,,,,,,,,,,,,,,,,
,,,,,,,,,,,,,,,827,2022-01-12_18h45.21.490,multiplicationStroop,2021.2.3,Win32,60.52536013,,,,,right,1,0.5622,0,22,22,33,1,2,4,2 | 4,2,1.9756,1.4111,incongruent,right,,,,,,stimulusFile/magnitude.xlsx,,,,,,,,,,,,,,,,,,,,,,,,,,,,,,,
,,,,,,,,,,,,,,,827,2022-01-12_18h45.21.490,multiplicationStroop,2021.2.3,Win32,60.52536013,,,,,left,1,0.7932,0,23,23,53,1,4,3,4 | 3,1,1.6933,1.6933,neutral,left,,,,,,stimulusFile/magnitude.xlsx,,,,,,,,,,,,,,,,,,,,,,,,,,,,,,,
,,,,,,,,,,,,,,,827,2022-01-12_18h45.21.490,multiplicationStroop,2021.2.3,Win32,60.52536013,,,,,right,1,0.5931,0,24,24,65,1,2,7,2 | 7,5,1.6933,1.6933,neutral,right,,,,,,stimulusFile/magnitude.xlsx,,,,,,,,,,,,,,,,,,,,,,,,,,,,,,,
,,,,,,,,,,,,,,,827,2022-01-12_18h45.21.490,multiplicationStroop,2021.2.3,Win32,60.52536013,,,,,left,0,0.635,0,25,25,27,1,8,9,8 | 9,1,1.9756,1.4111,incongruent,right,,,,,,stimulusFile/magnitude.xlsx,,,,,,,,,,,,,,,,,,,,,,,,,,,,,,,
,,,,,,,,,,,,,,,827,2022-01-12_18h45.21.490,multiplicationStroop,2021.2.3,Win32,60.52536013,,,,,left,1,0.9999,0,26,26,5,1,4,3,4 | 3,1,1.9756,1.4111,congruent,left,,,,,,stimulusFile/magnitude.xlsx,,,,,,,,,,,,,,,,,,,,,,,,,,,,,,,
,,,,,,,,,,,,,,,827,2022-01-12_18h45.21.490,multiplicationStroop,2021.2.3,Win32,60.52536013,,,,,right,1,0.9039,0,27,27,24,1,1,2,1 | 2,1,1.9756,1.4111,incongruent,right,,,,,,stimulusFile/magnitude.xlsx,,,,,,,,,,,,,,,,,,,,,,,,,,,,,,,
,,,,,,,,,,,,,,,827,2022-01-12_18h45.21.490,multiplicationStroop,2021.2.3,Win32,60.52536013,,,,,left,1,0.7775,0,28,28,14,1,8,6,8 | 6,2,1.9756,1.4111,congruent,left,,,,,,stimulusFile/magnitude.xlsx,,,,,,,,,,,,,,,,,,,,,,,,,,,,,,,
,,,,,,,,,,,,,,,827,2022-01-12_18h45.21.490,multiplicationStroop,2021.2.3,Win32,60.52536013,,,,,left,1,0.6623,0,29,29,4,1,2,1,2 | 1,1,1.9756,1.4111,congruent,left,,,,,,stimulusFile/magnitude.xlsx,,,,,,,,,,,,,,,,,,,,,,,,,,,,,,,
,,,,,,,,,,,,,,,827,2022-01-12_18h45.21.490,multiplicationStroop,2021.2.3,Win32,60.52536013,,,,,right,1,0.5834,0,30,30,66,1,3,8,3 | 8,5,1.6933,1.6933,neutral,right,,,,,,stimulusFile/magnitude.xlsx,,,,,,,,,,,,,,,,,,,,,,,,,,,,,,,
,,,,,,,,,,,,,,,827,2022-01-12_18h45.21.490,multiplicationStroop,2021.2.3,Win32,60.52536013,,,,,left,1,0.5255,0,31,31,44,1,6,1,6 | 1,5,1.4111,1.9756,incongruent,left,,,,,,stimulusFile/magnitude.xlsx,,,,,,,,,,,,,,,,,,,,,,,,,,,,,,,
,,,,,,,,,,,,,,,827,2022-01-12_18h45.21.490,multiplicationStroop,2021.2.3,Win32,60.52536013,,,,,right,1,0.6668,0,32,32,26,1,6,7,6 | 7,1,1.9756,1.4111,incongruent,right,,,,,,stimulusFile/magnitude.xlsx,,,,,,,,,,,,,,,,,,,,,,,,,,,,,,,
,,,,,,,,,,,,,,,827,2022-01-12_18h45.21.490,multiplicationStroop,2021.2.3,Win32,60.52536013,,,,,right,1,0.6174,0,33,33,57,1,2,4,2 | 4,2,1.6933,1.6933,neutral,right,,,,,,stimulusFile/magnitude.xlsx,,,,,,,,,,,,,,,,,,,,,,,,,,,,,,,
,,,,,,,,,,,,,,,827,2022-01-12_18h45.21.490,multiplicationStroop,2021.2.3,Win32,60.52536013,,,,,right,1,0.6206,0,34,34,64,1,1,6,1 | 6,5,1.6933,1.6933,neutral,right,,,,,,stimulusFile/magnitude.xlsx,,,,,,,,,,,,,,,,,,,,,,,,,,,,,,,
,,,,,,,,,,,,,,,827,2022-01-12_18h45.21.490,multiplicationStroop,2021.2.3,Win32,60.52536013,,,,,left,1,1.0671,0,35,35,37,1,4,2,4 | 2,2,1.4111,1.9756,incongruent,left,,,,,,stimulusFile/magnitude.xlsx,,,,,,,,,,,,,,,,,,,,,,,,,,,,,,,
,,,,,,,,,,,,,,,827,2022-01-12_18h45.21.490,multiplicationStroop,2021.2.3,Win32,60.52536013,,,,,left,1,0.5837,0,36,36,46,1,8,3,8 | 3,5,1.4111,1.9756,incongruent,left,,,,,,stimulusFile/magnitude.xlsx,,,,,,,,,,,,,,,,,,,,,,,,,,,,,,,
,,,,,,,,,,,,,,,827,2022-01-12_18h45.21.490,multiplicationStroop,2021.2.3,Win32,60.52536013,,,,,right,1,0.6845,0,37,37,25,1,3,4,3 | 4,1,1.9756,1.4111,incongruent,right,,,,,,stimulusFile/magnitude.xlsx,,,,,,,,,,,,,,,,,,,,,,,,,,,,,,,
,,,,,,,,,,,,,,,827,2022-01-12_18h45.21.490,multiplicationStroop,2021.2.3,Win32,60.52536013,,,,,right,1,0.771,0,38,38,2,1,6,7,6 | 7,1,1.4111,1.9756,congruent,right,,,,,,stimulusFile/magnitude.xlsx,,,,,,,,,,,,,,,,,,,,,,,,,,,,,,,
,,,,,,,,,,,,,,,827,2022-01-12_18h45.21.490,multiplicationStroop,2021.2.3,Win32,60.52536013,,,,,left,1,0.6708,0,39,39,36,1,3,1,3 | 1,2,1.4111,1.9756,incongruent,left,,,,,,stimulusFile/magnitude.xlsx,,,,,,,,,,,,,,,,,,,,,,,,,,,,,,,
,,,,,,,,,,,,,,,827,2022-01-12_18h45.21.490,multiplicationStroop,2021.2.3,Win32,60.52536013,,,,,left,1,0.5681,0,40,40,12,1,3,1,3 | 1,2,1.9756,1.4111,congruent,left,,,,,,stimulusFile/magnitude.xlsx,,,,,,,,,,,,,,,,,,,,,,,,,,,,,,,
,,,,,,,,,,,,,,,827,2022-01-12_18h45.21.490,multiplicationStroop,2021.2.3,Win32,60.52536013,,,,,left,1,0.6837,0,41,41,47,1,9,4,9 | 4,5,1.4111,1.9756,incongruent,left,,,,,,stimulusFile/magnitude.xlsx,,,,,,,,,,,,,,,,,,,,,,,,,,,,,,,
,,,,,,,,,,,,,,,827,2022-01-12_18h45.21.490,multiplicationStroop,2021.2.3,Win32,60.52536013,,,,,left,1,0.5535,0,42,42,15,1,9,7,9 | 7,2,1.9756,1.4111,congruent,left,,,,,,stimulusFile/magnitude.xlsx,,,,,,,,,,,,,,,,,,,,,,,,,,,,,,,
,,,,,,,,,,,,,,,827,2022-01-12_18h45.21.490,multiplicationStroop,2021.2.3,Win32,60.52536013,,,,,left,1,0.5037,0,43,43,63,1,9,7,9 | 7,2,1.6933,1.6933,neutral,left,,,,,,stimulusFile/magnitude.xlsx,,,,,,,,,,,,,,,,,,,,,,,,,,,,,,,
,,,,,,,,,,,,,,,827,2022-01-12_18h45.21.490,multiplicationStroop,2021.2.3,Win32,60.52536013,,,,,left,1,0.7847,0,44,44,61,1,4,2,4 | 2,2,1.6933,1.6933,neutral,left,,,,,,stimulusFile/magnitude.xlsx,,,,,,,,,,,,,,,,,,,,,,,,,,,,,,,
,,,,,,,,,,,,,,,827,2022-01-12_18h45.21.490,multiplicationStroop,2021.2.3,Win32,60.52536013,,,,,right,1,0.6835,0,45,45,58,1,6,8,6 | 8,2,1.6933,1.6933,neutral,right,,,,,,stimulusFile/magnitude.xlsx,,,,,,,,,,,,,,,,,,,,,,,,,,,,,,,
,,,,,,,,,,,,,,,827,2022-01-12_18h45.21.490,multiplicationStroop,2021.2.3,Win32,60.52536013,,,,,right,1,0.6928,0,46,46,43,1,4,9,4 | 9,5,1.9756,1.4111,incongruent,right,,,,,,stimulusFile/magnitude.xlsx,,,,,,,,,,,,,,,,,,,,,,,,,,,,,,,
,,,,,,,,,,,,,,,827,2022-01-12_18h45.21.490,multiplicationStroop,2021.2.3,Win32,60.52536013,,,,,right,1,0.9978,0,47,47,59,1,7,9,7 | 9,2,1.6933,1.6933,neutral,right,,,,,,stimulusFile/magnitude.xlsx,,,,,,,,,,,,,,,,,,,,,,,,,,,,,,,
,,,,,,,,,,,,,,,827,2022-01-12_18h45.21.490,multiplicationStroop,2021.2.3,Win32,60.52536013,,,,,right,1,0.7008,0,48,48,40,1,1,6,1 | 6,5,1.9756,1.4111,incongruent,right,,,,,,stimulusFile/magnitude.xlsx,,,,,,,,,,,,,,,,,,,,,,,,,,,,,,,
,,,,,,,,,,,,,,,827,2022-01-12_18h45.21.490,multiplicationStroop,2021.2.3,Win32,60.52536013,,,,,left,1,0.5339,0,49,49,20,1,6,1,6 | 1,5,1.9756,1.4111,congruent,left,,,,,,stimulusFile/magnitude.xlsx,,,,,,,,,,,,,,,,,,,,,,,,,,,,,,,
,,,,,,,,,,,,,,,827,2022-01-12_18h45.21.490,multiplicationStroop,2021.2.3,Win32,60.52536013,,,,,left,1,0.5856,0,50,50,62,1,8,6,8 | 6,2,1.6933,1.6933,neutral,left,,,,,,stimulusFile/magnitude.xlsx,,,,,,,,,,,,,,,,,,,,,,,,,,,,,,,
,,,,,,,,,,,,,,,827,2022-01-12_18h45.21.490,multiplicationStroop,2021.2.3,Win32,60.52536013,,,,,right,1,0.5998,0,51,51,41,1,2,7,2 | 7,5,1.9756,1.4111,incongruent,right,,,,,,stimulusFile/magnitude.xlsx,,,,,,,,,,,,,,,,,,,,,,,,,,,,,,,
,,,,,,,,,,,,,,,827,2022-01-12_18h45.21.490,multiplicationStroop,2021.2.3,Win32,60.52536013,,,,,right,1,0.6502,0,52,52,49,1,3,4,3 | 4,1,1.6933,1.6933,neutral,right,,,,,,stimulusFile/magnitude.xlsx,,,,,,,,,,,,,,,,,,,,,,,,,,,,,,,
,,,,,,,,,,,,,,,827,2022-01-12_18h45.21.490,multiplicationStroop,2021.2.3,Win32,60.52536013,,,,,right,1,0.6334,0,53,53,10,1,6,8,6 | 8,2,1.4111,1.9756,congruent,right,,,,,,stimulusFile/magnitude.xlsx,,,,,,,,,,,,,,,,,,,,,,,,,,,,,,,
,,,,,,,,,,,,,,,827,2022-01-12_18h45.21.490,multiplicationStroop,2021.2.3,Win32,60.52536013,,,,,right,1,0.5677,0,54,54,8,1,1,3,1 | 3,2,1.4111,1.9756,congruent,right,,,,,,stimulusFile/magnitude.xlsx,,,,,,,,,,,,,,,,,,,,,,,,,,,,,,,
,,,,,,,,,,,,,,,827,2022-01-12_18h45.21.490,multiplicationStroop,2021.2.3,Win32,60.52536013,,,,,right,1,0.5363,0,55,55,67,1,4,9,4 | 9,5,1.6933,1.6933,neutral,right,,,,,,stimulusFile/magnitude.xlsx,,,,,,,,,,,,,,,,,,,,,,,,,,,,,,,
,,,,,,,,,,,,,,,827,2022-01-12_18h45.21.490,multiplicationStroop,2021.2.3,Win32,60.52536013,,,,,left,1,0.5835,0,56,56,55,1,9,8,9 | 8,1,1.6933,1.6933,neutral,left,,,,,,stimulusFile/magnitude.xlsx,,,,,,,,,,,,,,,,,,,,,,,,,,,,,,,
,,,,,,,,,,,,,,,827,2022-01-12_18h45.21.490,multiplicationStroop,2021.2.3,Win32,60.52536013,,,,,right,1,0.6019,0,57,57,32,1,1,3,1 | 3,2,1.9756,1.4111,incongruent,right,,,,,,stimulusFile/magnitude.xlsx,,,,,,,,,,,,,,,,,,,,,,,,,,,,,,,
,,,,,,,,,,,,,,,827,2022-01-12_18h45.21.490,multiplicationStroop,2021.2.3,Win32,60.52536013,,,,,left,1,0.5836,0,58,58,13,1,4,2,4 | 2,2,1.9756,1.4111,congruent,left,,,,,,stimulusFile/magnitude.xlsx,,,,,,,,,,,,,,,,,,,,,,,,,,,,,,,
,,,,,,,,,,,,,,,827,2022-01-12_18h45.21.490,multiplicationStroop,2021.2.3,Win32,60.52536013,,,,,left,1,0.6248,0,59,59,54,1,7,6,7 | 6,1,1.6933,1.6933,neutral,left,,,,,,stimulusFile/magnitude.xlsx,,,,,,,,,,,,,,,,,,,,,,,,,,,,,,,
,,,,,,,,,,,,,,,827,2022-01-12_18h45.21.490,multiplicationStroop,2021.2.3,Win32,60.52536013,,,,,left,1,0.6308,0,60,60,29,1,4,3,4 | 3,1,1.4111,1.9756,incongruent,left,,,,,,stimulusFile/magnitude.xlsx,,,,,,,,,,,,,,,,,,,,,,,,,,,,,,,
,,,,,,,,,,,,,,,827,2022-01-12_18h45.21.490,multiplicationStroop,2021.2.3,Win32,60.52536013,,,,,right,0,0.9508,0,61,61,39,1,9,7,9 | 7,2,1.4111,1.9756,incongruent,left,,,,,,stimulusFile/magnitude.xlsx,,,,,,,,,,,,,,,,,,,,,,,,,,,,,,,
,,,,,,,,,,,,,,,827,2022-01-12_18h45.21.490,multiplicationStroop,2021.2.3,Win32,60.52536013,,,,,right,1,0.8262,0,62,62,18,1,3,8,3 | 8,5,1.4111,1.9756,congruent,right,,,,,,stimulusFile/magnitude.xlsx,,,,,,,,,,,,,,,,,,,,,,,,,,,,,,,
,,,,,,,,,,,,,,,827,2022-01-12_18h45.21.490,multiplicationStroop,2021.2.3,Win32,60.52536013,,,,,left,1,0.604,0,63,63,28,1,2,1,2 | 1,1,1.4111,1.9756,incongruent,left,,,,,,stimulusFile/magnitude.xlsx,,,,,,,,,,,,,,,,,,,,,,,,,,,,,,,
,,,,,,,,,,,,,,,827,2022-01-12_18h45.21.490,multiplicationStroop,2021.2.3,Win32,60.52536013,,,,,right,1,0.9375,0,64,64,42,1,3,8,3 | 8,5,1.9756,1.4111,incongruent,right,,,,,,stimulusFile/magnitude.xlsx,,,,,,,,,,,,,,,,,,,,,,,,,,,,,,,
,,,,,,,,,,,,,,,827,2022-01-12_18h45.21.490,multiplicationStroop,2021.2.3,Win32,60.52536013,,,,,right,1,0.5187,0,65,65,1,1,3,4,3 | 4,1,1.4111,1.9756,congruent,right,,,,,,stimulusFile/magnitude.xlsx,,,,,,,,,,,,,,,,,,,,,,,,,,,,,,,
,,,,,,,,,,,,,,,827,2022-01-12_18h45.21.490,multiplicationStroop,2021.2.3,Win32,60.52536013,,,,,left,1,0.4733,0,66,66,68,1,6,1,6 | 1,5,1.6933,1.6933,neutral,left,,,,,,stimulusFile/magnitude.xlsx,,,,,,,,,,,,,,,,,,,,,,,,,,,,,,,
,,,,,,,,,,,,,,,827,2022-01-12_18h45.21.490,multiplicationStroop,2021.2.3,Win32,60.52536013,,,,,right,1,0.5829,0,67,67,9,1,2,4,2 | 4,2,1.4111,1.9756,congruent,right,,,,,,stimulusFile/magnitude.xlsx,,,,,,,,,,,,,,,,,,,,,,,,,,,,,,,
,,,,,,,,,,,,,,,827,2022-01-12_18h45.21.490,multiplicationStroop,2021.2.3,Win32,60.52536013,,,,,left,1,0.443,0,68,68,22,1,8,3,8 | 3,5,1.9756,1.4111,congruent,left,,,,,,stimulusFile/magnitude.xlsx,,,,,,,,,,,,,,,,,,,,,,,,,,,,,,,
,,,,,,,,,,,,,,,827,2022-01-12_18h45.21.490,multiplicationStroop,2021.2.3,Win32,60.52536013,,,,,left,1,0.502,0,69,69,21,1,7,2,7 | 2,5,1.9756,1.4111,congruent,left,,,,,,stimulusFile/magnitude.xlsx,,,,,,,,,,,,,,,,,,,,,,,,,,,,,,,
,,,,,,,,,,,,,,,827,2022-01-12_18h45.21.490,multiplicationStroop,2021.2.3,Win32,60.52536013,,,,,right,1,0.572,0,70,70,48,1,1,2,1 | 2,1,1.6933,1.6933,neutral,right,,,,,,stimulusFile/magnitude.xlsx,,,,,,,,,,,,,,,,,,,,,,,,,,,,,,,
,,,,,,,,,,,,,,,827,2022-01-12_18h45.21.490,multiplicationStroop,2021.2.3,Win32,60.52536013,,,,,left,1,0.6518,0,71,71,52,1,2,1,2 | 1,1,1.6933,1.6933,neutral,left,,,,,,stimulusFile/magnitude.xlsx,,,,,,,,,,,,,,,,,,,,,,,,,,,,,,,
,,,,,,,,,,,,,,,827,2022-01-12_18h45.21.490,multiplicationStroop,2021.2.3,Win32,60.52536013,,,,,,,,,,,,,,,,,,,,,0,0,0,0,1,stimulusFile/magnitude.xlsx,NUMERICALLY larger.,images/numericallyLarger.png,,,,,,,,,,,,,,,,,,,,,,,,,,,,,
,,,,,,,,,,,,,,,827,2022-01-12_18h45.21.490,multiplicationStroop,2021.2.3,Win32,60.52536013,space,8.0632,space,2.5974,right,1,0.6181,0,0,0,37,1,4,2,4 | 2,2,1.4111,1.9756,incongruent,right,,,,,,stimulusFile/physical.xlsx,,,,,,,,,,,,,,,,,,,,,,,,,,,,,,,
,,,,,,,,,,,,,,,827,2022-01-12_18h45.21.490,multiplicationStroop,2021.2.3,Win32,60.52536013,,,,,left,1,0.4834,0,1,1,53,1,4,4,4 | 4,0,1.9756,1.4111,neutral,left,,,,,,stimulusFile/physical.xlsx,,,,,,,,,,,,,,,,,,,,,,,,,,,,,,,
,,,,,,,,,,,,,,,827,2022-01-12_18h45.21.490,multiplicationStroop,2021.2.3,Win32,60.52536013,,,,,right,1,0.7836,0,2,2,57,1,2,2,2 | 2,0,1.4111,1.9756,neutral,right,,,,,,stimulusFile/physical.xlsx,,,,,,,,,,,,,,,,,,,,,,,,,,,,,,,
,,,,,,,,,,,,,,,827,2022-01-12_18h45.21.490,multiplicationStroop,2021.2.3,Win32,60.52536013,,,,,left,1,0.9331,0,3,3,35,1,7,9,7 | 9,2,1.9756,1.4111,incongruent,left,,,,,,stimulusFile/physical.xlsx,,,,,,,,,,,,,,,,,,,,,,,,,,,,,,,
,,,,,,,,,,,,,,,827,2022-01-12_18h45.21.490,multiplicationStroop,2021.2.3,Win32,60.52536013,,,,,right,1,0.4546,0,4,4,9,1,2,4,2 | 4,2,1.4111,1.9756,congruent,right,,,,,,stimulusFile/physical.xlsx,,,,,,,,,,,,,,,,,,,,,,,,,,,,,,,
,,,,,,,,,,,,,,,827,2022-01-12_18h45.21.490,multiplicationStroop,2021.2.3,Win32,60.52536013,,,,,left,1,0.4934,0,5,5,50,1,6,6,6 | 6,0,1.9756,1.4111,neutral,left,,,,,,stimulusFile/physical.xlsx,,,,,,,,,,,,,,,,,,,,,,,,,,,,,,,
,,,,,,,,,,,,,,,827,2022-01-12_18h45.21.490,multiplicationStroop,2021.2.3,Win32,60.52536013,,,,,left,0,0.6392,0,6,6,66,1,3,3,3 | 3,0,1.9756,1.4111,neutral,right,,,,,,stimulusFile/physical.xlsx,,,,,,,,,,,,,,,,,,,,,,,,,,,,,,,
,,,,,,,,,,,,,,,827,2022-01-12_18h45.21.490,multiplicationStroop,2021.2.3,Win32,60.52536013,,,,,right,1,0.5497,0,7,7,45,1,7,2,7 | 2,5,1.4111,1.9756,incongruent,right,,,,,,stimulusFile/physical.xlsx,,,,,,,,,,,,,,,,,,,,,,,,,,,,,,,
,,,,,,,,,,,,,,,827,2022-01-12_18h45.21.490,multiplicationStroop,2021.2.3,Win32,60.52536013,,,,,right,1,0.6174,0,8,8,29,1,4,3,4 | 3,1,1.4111,1.9756,incongruent,right,,,,,,stimulusFile/physical.xlsx,,,,,,,,,,,,,,,,,,,,,,,,,,,,,,,
,,,,,,,,,,,,,,,827,2022-01-12_18h45.21.490,multiplicationStroop,2021.2.3,Win32,60.52536013,,,,,left,1,0.5698,0,9,9,13,1,4,2,4 | 2,2,1.9756,1.4111,congruent,left,,,,,,stimulusFile/physical.xlsx,,,,,,,,,,,,,,,,,,,,,,,,,,,,,,,
,,,,,,,,,,,,,,,827,2022-01-12_18h45.21.490,multiplicationStroop,2021.2.3,Win32,60.52536013,,,,,right,1,0.5379,0,10,10,39,1,9,7,9 | 7,2,1.4111,1.9756,incongruent,right,,,,,,stimulusFile/physical.xlsx,,,,,,,,,,,,,,,,,,,,,,,,,,,,,,,
,,,,,,,,,,,,,,,827,2022-01-12_18h45.21.490,multiplicationStroop,2021.2.3,Win32,60.52536013,,,,,left,1,0.4717,0,11,11,43,1,4,9,4 | 9,5,1.9756,1.4111,incongruent,left,,,,,,stimulusFile/physical.xlsx,,,,,,,,,,,,,,,,,,,,,,,,,,,,,,,
,,,,,,,,,,,,,,,827,2022-01-12_18h45.21.490,multiplicationStroop,2021.2.3,Win32,60.52536013,,,,,right,1,0.479,0,12,12,65,1,2,2,2 | 2,0,1.4111,1.9756,neutral,right,,,,,,stimulusFile/physical.xlsx,,,,,,,,,,,,,,,,,,,,,,,,,,,,,,,
,,,,,,,,,,,,,,,827,2022-01-12_18h45.21.490,multiplicationStroop,2021.2.3,Win32,60.52536013,,,,,right,1,0.5172,0,13,13,59,1,7,7,7 | 7,0,1.4111,1.9756,neutral,right,,,,,,stimulusFile/physical.xlsx,,,,,,,,,,,,,,,,,,,,,,,,,,,,,,,
,,,,,,,,,,,,,,,827,2022-01-12_18h45.21.490,multiplicationStroop,2021.2.3,Win32,60.52536013,,,,,right,1,0.5673,0,14,14,58,1,6,6,6 | 6,0,1.4111,1.9756,neutral,right,,,,,,stimulusFile/physical.xlsx,,,,,,,,,,,,,,,,,,,,,,,,,,,,,,,
,,,,,,,,,,,,,,,827,2022-01-12_18h45.21.490,multiplicationStroop,2021.2.3,Win32,60.52536013,,,,,right,1,0.9594,0,15,15,28,1,2,1,2 | 1,1,1.4111,1.9756,incongruent,right,,,,,,stimulusFile/physical.xlsx,,,,,,,,,,,,,,,,,,,,,,,,,,,,,,,
,,,,,,,,,,,,,,,827,2022-01-12_18h45.21.490,multiplicationStroop,2021.2.3,Win32,60.52536013,,,,,left,1,0.513,0,16,16,23,1,9,4,9 | 4,5,1.9756,1.4111,congruent,left,,,,,,stimulusFile/physical.xlsx,,,,,,,,,,,,,,,,,,,,,,,,,,,,,,,
,,,,,,,,,,,,,,,827,2022-01-12_18h45.21.490,multiplicationStroop,2021.2.3,Win32,60.52536013,,,,,left,0,0.5389,0,17,17,64,1,1,1,1 | 1,0,1.9756,1.4111,neutral,right,,,,,,stimulusFile/physical.xlsx,,,,,,,,,,,,,,,,,,,,,,,,,,,,,,,
,,,,,,,,,,,,,,,827,2022-01-12_18h45.21.490,multiplicationStroop,2021.2.3,Win32,60.52536013,,,,,left,1,0.5014,0,18,18,22,1,8,3,8 | 3,5,1.9756,1.4111,congruent,left,,,,,,stimulusFile/physical.xlsx,,,,,,,,,,,,,,,,,,,,,,,,,,,,,,,
,,,,,,,,,,,,,,,827,2022-01-12_18h45.21.490,multiplicationStroop,2021.2.3,Win32,60.52536013,,,,,left,1,0.6007,0,19,19,25,1,3,4,3 | 4,1,1.9756,1.4111,incongruent,left,,,,,,stimulusFile/physical.xlsx,,,,,,,,,,,,,,,,,,,,,,,,,,,,,,,
,,,,,,,,,,,,,,,827,2022-01-12_18h45.21.490,multiplicationStroop,2021.2.3,Win32,60.52536013,,,,,left,1,0.5844,0,20,20,41,1,2,7,2 | 7,5,1.9756,1.4111,incongruent,left,,,,,,stimulusFile/physical.xlsx,,,,,,,,,,,,,,,,,,,,,,,,,,,,,,,
,,,,,,,,,,,,,,,827,2022-01-12_18h45.21.490,multiplicationStroop,2021.2.3,Win32,60.52536013,,,,,left,1,0.4963,0,21,21,12,1,3,1,3 | 1,2,1.9756,1.4111,congruent,left,,,,,,stimulusFile/physical.xlsx,,,,,,,,,,,,,,,,,,,,,,,,,,,,,,,
,,,,,,,,,,,,,,,827,2022-01-12_18h45.21.490,multiplicationStroop,2021.2.3,Win32,60.52536013,,,,,left,1,0.7114,0,22,22,26,1,6,7,6 | 7,1,1.9756,1.4111,incongruent,left,,,,,,stimulusFile/physical.xlsx,,,,,,,,,,,,,,,,,,,,,,,,,,,,,,,
,,,,,,,,,,,,,,,827,2022-01-12_18h45.21.490,multiplicationStroop,2021.2.3,Win32,60.52536013,,,,,left,1,0.5998,0,23,23,15,1,9,7,9 | 7,2,1.9756,1.4111,congruent,left,,,,,,stimulusFile/physical.xlsx,,,,,,,,,,,,,,,,,,,,,,,,,,,,,,,
,,,,,,,,,,,,,,,827,2022-01-12_18h45.21.490,multiplicationStroop,2021.2.3,Win32,60.52536013,,,,,left,1,0.553,0,24,24,7,1,9,8,9 | 8,1,1.9756,1.4111,congruent,left,,,,,,stimulusFile/physical.xlsx,,,,,,,,,,,,,,,,,,,,,,,,,,,,,,,
,,,,,,,,,,,,,,,827,2022-01-12_18h45.21.490,multiplicationStroop,2021.2.3,Win32,60.52536013,,,,,right,1,0.5172,0,25,25,38,1,8,6,8 | 6,2,1.4111,1.9756,incongruent,right,,,,,,stimulusFile/physical.xlsx,,,,,,,,,,,,,,,,,,,,,,,,,,,,,,,
,,,,,,,,,,,,,,,827,2022-01-12_18h45.21.490,multiplicationStroop,2021.2.3,Win32,60.52536013,,,,,left,1,0.5018,0,26,26,34,1,6,8,6 | 8,2,1.9756,1.4111,incongruent,left,,,,,,stimulusFile/physical.xlsx,,,,,,,,,,,,,,,,,,,,,,,,,,,,,,,
,,,,,,,,,,,,,,,827,2022-01-12_18h45.21.490,multiplicationStroop,2021.2.3,Win32,60.52536013,,,,,left,1,0.5349,0,27,27,24,1,1,2,1 | 2,1,1.9756,1.4111,incongruent,left,,,,,,stimulusFile/physical.xlsx,,,,,,,,,,,,,,,,,,,,,,,,,,,,,,,
,,,,,,,,,,,,,,,827,2022-01-12_18h45.21.490,multiplicationStroop,2021.2.3,Win32,60.52536013,,,,,left,1,0.5738,0,28,28,68,1,6,6,6 | 6,0,1.9756,1.4111,neutral,left,,,,,,stimulusFile/physical.xlsx,,,,,,,,,,,,,,,,,,,,,,,,,,,,,,,
,,,,,,,,,,,,,,,827,2022-01-12_18h45.21.490,multiplicationStroop,2021.2.3,Win32,60.52536013,,,,,left,1,0.6335,0,29,29,70,1,8,8,8 | 8,0,1.9756,1.4111,neutral,left,,,,,,stimulusFile/physical.xlsx,,,,,,,,,,,,,,,,,,,,,,,,,,,,,,,
,,,,,,,,,,,,,,,827,2022-01-12_18h45.21.490,multiplicationStroop,2021.2.3,Win32,60.52536013,,,,,right,0,0.5173,0,30,30,69,1,7,7,7 | 7,0,1.4111,1.9756,neutral,left,,,,,,stimulusFile/physical.xlsx,,,,,,,,,,,,,,,,,,,,,,,,,,,,,,,
,,,,,,,,,,,,,,,827,2022-01-12_18h45.21.490,multiplicationStroop,2021.2.3,Win32,60.52536013,,,,,left,1,0.4505,0,31,31,51,1,8,8,8 | 8,0,1.9756,1.4111,neutral,left,,,,,,stimulusFile/physical.xlsx,,,,,,,,,,,,,,,,,,,,,,,,,,,,,,,
,,,,,,,,,,,,,,,827,2022-01-12_18h45.21.490,multiplicationStroop,2021.2.3,Win32,60.52536013,,,,,right,1,0.466,0,32,32,19,1,4,9,4 | 9,5,1.4111,1.9756,congruent,right,,,,,,stimulusFile/physical.xlsx,,,,,,,,,,,,,,,,,,,,,,,,,,,,,,,
,,,,,,,,,,,,,,,827,2022-01-12_18h45.21.490,multiplicationStroop,2021.2.3,Win32,60.52536013,,,,,right,1,0.5277,0,33,33,60,1,3,3,3 | 3,0,1.4111,1.9756,neutral,right,,,,,,stimulusFile/physical.xlsx,,,,,,,,,,,,,,,,,,,,,,,,,,,,,,,
,,,,,,,,,,,,,,,827,2022-01-12_18h45.21.490,multiplicationStroop,2021.2.3,Win32,60.52536013,,,,,right,1,0.5517,0,34,34,67,1,4,4,4 | 4,0,1.4111,1.9756,neutral,right,,,,,,stimulusFile/physical.xlsx,,,,,,,,,,,,,,,,,,,,,,,,,,,,,,,
,,,,,,,,,,,,,,,827,2022-01-12_18h45.21.490,multiplicationStroop,2021.2.3,Win32,60.52536013,,,,,left,1,0.4859,0,35,35,33,1,2,4,2 | 4,2,1.9756,1.4111,incongruent,left,,,,,,stimulusFile/physical.xlsx,,,,,,,,,,,,,,,,,,,,,,,,,,,,,,,
,,,,,,,,,,,,,,,827,2022-01-12_18h45.21.490,multiplicationStroop,2021.2.3,Win32,60.52536013,,,,,left,1,0.5033,0,36,36,27,1,8,9,8 | 9,1,1.9756,1.4111,incongruent,left,,,,,,stimulusFile/physical.xlsx,,,,,,,,,,,,,,,,,,,,,,,,,,,,,,,
,,,,,,,,,,,,,,,827,2022-01-12_18h45.21.490,multiplicationStroop,2021.2.3,Win32,60.52536013,,,,,right,1,0.4678,0,37,37,44,1,6,1,6 | 1,5,1.4111,1.9756,incongruent,right,,,,,,stimulusFile/physical.xlsx,,,,,,,,,,,,,,,,,,,,,,,,,,,,,,,
,,,,,,,,,,,,,,,827,2022-01-12_18h45.21.490,multiplicationStroop,2021.2.3,Win32,60.52536013,,,,,left,0,0.352,0,38,38,18,1,3,8,3 | 8,5,1.4111,1.9756,congruent,right,,,,,,stimulusFile/physical.xlsx,,,,,,,,,,,,,,,,,,,,,,,,,,,,,,,
,,,,,,,,,,,,,,,827,2022-01-12_18h45.21.490,multiplicationStroop,2021.2.3,Win32,60.52536013,,,,,right,1,1.1845,0,39,39,31,1,9,8,9 | 8,1,1.4111,1.9756,incongruent,right,,,,,,stimulusFile/physical.xlsx,,,,,,,,,,,,,,,,,,,,,,,,,,,,,,,
,,,,,,,,,,,,,,,827,2022-01-12_18h45.21.490,multiplicationStroop,2021.2.3,Win32,60.52536013,,,,,left,1,0.5969,0,40,40,4,1,2,1,2 | 1,1,1.9756,1.4111,congruent,left,,,,,,stimulusFile/physical.xlsx,,,,,,,,,,,,,,,,,,,,,,,,,,,,,,,
,,,,,,,,,,,,,,,827,2022-01-12_18h45.21.490,multiplicationStroop,2021.2.3,Win32,60.52536013,,,,,right,1,0.4786,0,41,41,61,1,4,4,4 | 4,0,1.4111,1.9756,neutral,right,,,,,,stimulusFile/physical.xlsx,,,,,,,,,,,,,,,,,,,,,,,,,,,,,,,
,,,,,,,,,,,,,,,827,2022-01-12_18h45.21.490,multiplicationStroop,2021.2.3,Win32,60.52536013,,,,,left,1,0.6182,0,42,42,55,1,9,9,9 | 9,0,1.9756,1.4111,neutral,left,,,,,,stimulusFile/physical.xlsx,,,,,,,,,,,,,,,,,,,,,,,,,,,,,,,
,,,,,,,,,,,,,,,827,2022-01-12_18h45.21.490,multiplicationStroop,2021.2.3,Win32,60.52536013,,,,,right,0,0.5257,0,43,43,71,1,9,9,9 | 9,0,1.4111,1.9756,neutral,left,,,,,,stimulusFile/physical.xlsx,,,,,,,,,,,,,,,,,,,,,,,,,,,,,,,
,,,,,,,,,,,,,,,827,2022-01-12_18h45.21.490,multiplicationStroop,2021.2.3,Win32,60.52536013,,,,,right,1,0.6013,0,44,44,2,1,6,7,6 | 7,1,1.4111,1.9756,congruent,right,,,,,,stimulusFile/physical.xlsx,,,,,,,,,,,,,,,,,,,,,,,,,,,,,,,
,,,,,,,,,,,,,,,827,2022-01-12_18h45.21.490,multiplicationStroop,2021.2.3,Win32,60.52536013,,,,,left,1,0.5525,0,45,45,48,1,1,1,1 | 1,0,1.9756,1.4111,neutral,left,,,,,,stimulusFile/physical.xlsx,,,,,,,,,,,,,,,,,,,,,,,,,,,,,,,
,,,,,,,,,,,,,,,827,2022-01-12_18h45.21.490,multiplicationStroop,2021.2.3,Win32,60.52536013,,,,,left,1,0.4666,0,46,46,52,1,2,2,2 | 2,0,1.9756,1.4111,neutral,left,,,,,,stimulusFile/physical.xlsx,,,,,,,,,,,,,,,,,,,,,,,,,,,,,,,
,,,,,,,,,,,,,,,827,2022-01-12_18h45.21.490,multiplicationStroop,2021.2.3,Win32,60.52536013,,,,,right,1,0.5036,0,47,47,46,1,8,3,8 | 3,5,1.4111,1.9756,incongruent,right,,,,,,stimulusFile/physical.xlsx,,,,,,,,,,,,,,,,,,,,,,,,,,,,,,,
,,,,,,,,,,,,,,,827,2022-01-12_18h45.21.490,multiplicationStroop,2021.2.3,Win32,60.52536013,,,,,left,0,0.4999,0,48,48,10,1,6,8,6 | 8,2,1.4111,1.9756,congruent,right,,,,,,stimulusFile/physical.xlsx,,,,,,,,,,,,,,,,,,,,,,,,,,,,,,,
,,,,,,,,,,,,,,,827,2022-01-12_18h45.21.490,multiplicationStroop,2021.2.3,Win32,60.52536013,,,,,right,1,1.2833,0,49,49,11,1,7,9,7 | 9,2,1.4111,1.9756,congruent,right,,,,,,stimulusFile/physical.xlsx,,,,,,,,,,,,,,,,,,,,,,,,,,,,,,,
,,,,,,,,,,,,,,,827,2022-01-12_18h45.21.490,multiplicationStroop,2021.2.3,Win32,60.52536013,,,,,right,1,0.785,0,50,50,17,1,2,7,2 | 7,5,1.4111,1.9756,congruent,right,,,,,,stimulusFile/physical.xlsx,,,,,,,,,,,,,,,,,,,,,,,,,,,,,,,
,,,,,,,,,,,,,,,827,2022-01-12_18h45.21.490,multiplicationStroop,2021.2.3,Win32,60.52536013,,,,,right,1,0.5424,0,51,51,56,1,1,1,1 | 1,0,1.4111,1.9756,neutral,right,,,,,,stimulusFile/physical.xlsx,,,,,,,,,,,,,,,,,,,,,,,,,,,,,,,
,,,,,,,,,,,,,,,827,2022-01-12_18h45.21.490,multiplicationStroop,2021.2.3,Win32,60.52536013,,,,,right,1,0.6347,0,52,52,62,1,8,8,8 | 8,0,1.4111,1.9756,neutral,right,,,,,,stimulusFile/physical.xlsx,,,,,,,,,,,,,,,,,,,,,,,,,,,,,,,
,,,,,,,,,,,,,,,827,2022-01-12_18h45.21.490,multiplicationStroop,2021.2.3,Win32,60.52536013,,,,,left,1,0.5394,0,53,53,5,1,4,3,4 | 3,1,1.9756,1.4111,congruent,left,,,,,,stimulusFile/physical.xlsx,,,,,,,,,,,,,,,,,,,,,,,,,,,,,,,
,,,,,,,,,,,,,,,827,2022-01-12_18h45.21.490,multiplicationStroop,2021.2.3,Win32,60.52536013,,,,,right,1,0.678,0,54,54,36,1,3,1,3 | 1,2,1.4111,1.9756,incongruent,right,,,,,,stimulusFile/physical.xlsx,,,,,,,,,,,,,,,,,,,,,,,,,,,,,,,
,,,,,,,,,,,,,,,827,2022-01-12_18h45.21.490,multiplicationStroop,2021.2.3,Win32,60.52536013,,,,,right,1,0.6342,0,55,55,30,1,7,6,7 | 6,1,1.4111,1.9756,incongruent,right,,,,,,stimulusFile/physical.xlsx,,,,,,,,,,,,,,,,,,,,,,,,,,,,,,,
,,,,,,,,,,,,,,,827,2022-01-12_18h45.21.490,multiplicationStroop,2021.2.3,Win32,60.52536013,,,,,right,1,0.5909,0,56,56,0,1,1,2,1 | 2,1,1.4111,1.9756,congruent,right,,,,,,stimulusFile/physical.xlsx,,,,,,,,,,,,,,,,,,,,,,,,,,,,,,,
,,,,,,,,,,,,,,,827,2022-01-12_18h45.21.490,multiplicationStroop,2021.2.3,Win32,60.52536013,,,,,right,1,0.5513,0,57,57,63,1,9,9,9 | 9,0,1.4111,1.9756,neutral,right,,,,,,stimulusFile/physical.xlsx,,,,,,,,,,,,,,,,,,,,,,,,,,,,,,,
,,,,,,,,,,,,,,,827,2022-01-12_18h45.21.490,multiplicationStroop,2021.2.3,Win32,60.52536013,,,,,left,1,0.4765,0,58,58,49,1,3,3,3 | 3,0,1.9756,1.4111,neutral,left,,,,,,stimulusFile/physical.xlsx,,,,,,,,,,,,,,,,,,,,,,,,,,,,,,,
,,,,,,,,,,,,,,,827,2022-01-12_18h45.21.490,multiplicationStroop,2021.2.3,Win32,60.52536013,,,,,left,1,0.536,0,59,59,42,1,3,8,3 | 8,5,1.9756,1.4111,incongruent,left,,,,,,stimulusFile/physical.xlsx,,,,,,,,,,,,,,,,,,,,,,,,,,,,,,,
,,,,,,,,,,,,,,,827,2022-01-12_18h45.21.490,multiplicationStroop,2021.2.3,Win32,60.52536013,,,,,left,1,0.5221,0,60,60,54,1,7,7,7 | 7,0,1.9756,1.4111,neutral,left,,,,,,stimulusFile/physical.xlsx,,,,,,,,,,,,,,,,,,,,,,,,,,,,,,,
,,,,,,,,,,,,,,,827,2022-01-12_18h45.21.490,multiplicationStroop,2021.2.3,Win32,60.52536013,,,,,left,1,0.5167,0,61,61,20,1,6,1,6 | 1,5,1.9756,1.4111,congruent,left,,,,,,stimulusFile/physical.xlsx,,,,,,,,,,,,,,,,,,,,,,,,,,,,,,,
,,,,,,,,,,,,,,,827,2022-01-12_18h45.21.490,multiplicationStroop,2021.2.3,Win32,60.52536013,,,,,right,1,0.654,0,62,62,47,1,9,4,9 | 4,5,1.4111,1.9756,incongruent,right,,,,,,stimulusFile/physical.xlsx,,,,,,,,,,,,,,,,,,,,,,,,,,,,,,,
,,,,,,,,,,,,,,,827,2022-01-12_18h45.21.490,multiplicationStroop,2021.2.3,Win32,60.52536013,,,,,left,1,0.5055,0,63,63,32,1,1,3,1 | 3,2,1.9756,1.4111,incongruent,left,,,,,,stimulusFile/physical.xlsx,,,,,,,,,,,,,,,,,,,,,,,,,,,,,,,
,,,,,,,,,,,,,,,827,2022-01-12_18h45.21.490,multiplicationStroop,2021.2.3,Win32,60.52536013,,,,,right,1,0.588,0,64,64,8,1,1,3,1 | 3,2,1.4111,1.9756,congruent,right,,,,,,stimulusFile/physical.xlsx,,,,,,,,,,,,,,,,,,,,,,,,,,,,,,,
,,,,,,,,,,,,,,,827,2022-01-12_18h45.21.490,multiplicationStroop,2021.2.3,Win32,60.52536013,,,,,left,1,0.5504,0,65,65,40,1,1,6,1 | 6,5,1.9756,1.4111,incongruent,left,,,,,,stimulusFile/physical.xlsx,,,,,,,,,,,,,,,,,,,,,,,,,,,,,,,
,,,,,,,,,,,,,,,827,2022-01-12_18h45.21.490,multiplicationStroop,2021.2.3,Win32,60.52536013,,,,,left,1,0.5282,0,66,66,6,1,7,6,7 | 6,1,1.9756,1.4111,congruent,left,,,,,,stimulusFile/physical.xlsx,,,,,,,,,,,,,,,,,,,,,,,,,,,,,,,
,,,,,,,,,,,,,,,827,2022-01-12_18h45.21.490,multiplicationStroop,2021.2.3,Win32,60.52536013,,,,,left,1,0.5784,0,67,67,14,1,8,6,8 | 6,2,1.9756,1.4111,congruent,left,,,,,,stimulusFile/physical.xlsx,,,,,,,,,,,,,,,,,,,,,,,,,,,,,,,
,,,,,,,,,,,,,,,827,2022-01-12_18h45.21.490,multiplicationStroop,2021.2.3,Win32,60.52536013,,,,,left,1,0.5196,0,68,68,21,1,7,2,7 | 2,5,1.9756,1.4111,congruent,left,,,,,,stimulusFile/physical.xlsx,,,,,,,,,,,,,,,,,,,,,,,,,,,,,,,
,,,,,,,,,,,,,,,827,2022-01-12_18h45.21.490,multiplicationStroop,2021.2.3,Win32,60.52536013,,,,,right,1,0.4913,0,69,69,16,1,1,6,1 | 6,5,1.4111,1.9756,congruent,right,,,,,,stimulusFile/physical.xlsx,,,,,,,,,,,,,,,,,,,,,,,,,,,,,,,
,,,,,,,,,,,,,,,827,2022-01-12_18h45.21.490,multiplicationStroop,2021.2.3,Win32,60.52536013,,,,,right,1,0.5761,0,70,70,3,1,8,9,8 | 9,1,1.4111,1.9756,congruent,right,,,,,,stimulusFile/physical.xlsx,,,,,,,,,,,,,,,,,,,,,,,,,,,,,,,
,,,,,,,,,,,,,,,827,2022-01-12_18h45.21.490,multiplicationStroop,2021.2.3,Win32,60.52536013,,,,,right,1,0.5018,0,71,71,1,1,3,4,3 | 4,1,1.4111,1.9756,congruent,right,,,,,,stimulusFile/physical.xlsx,,,,,,,,,,,,,,,,,,,,,,,,,,,,,,,
,,,,,,,,,,,,,,,827,2022-01-12_18h45.21.490,multiplicationStroop,2021.2.3,Win32,60.52536013,,,,,,,,,,,,,,,,,,,,,0,1,1,1,1,stimulusFile/physical.xlsx,PHYSICALLY larger.,images/physicallyLarger.png,,,,,,,,,,,,,,,,,,,,,,,,,,,,,
,,,,,,,,,,,,,,,827,2022-01-12_18h45.21.490,multiplicationStroop,2021.2.3,Win32,60.52536013,,,,,,,,,,,,,,,,,,,,,,,,,,,,,space,17.0664,space,2.8779,14,4.0439,1,0,0,0,0,1,2,×,7,2 × 7,congruent,smallerFirst,1,2,14,,,,,,,,
,,,,,,,,,,,,,,,827,2022-01-12_18h45.21.490,multiplicationStroop,2021.2.3,Win32,60.52536013,,,,,,,,,,,,,,,,,,,,,,,,,,,,,,,,,20,2.3211,1,0,1,1,21,1,5,×,4,5 × 4,congruent,largerFirst,2,1,20,,,,,,,,
,,,,,,,,,,,,,,,827,2022-01-12_18h45.21.490,multiplicationStroop,2021.2.3,Win32,60.52536013,,,,,,,,,,,,,,,,,,,,,,,,,,,,,,,,,72,2.6491,1,0,2,2,3,1,8,×,9,8 × 9,congruent,smallerFirst,1,2,72,,,,,,,,
,,,,,,,,,,,,,,,827,2022-01-12_18h45.21.490,multiplicationStroop,2021.2.3,Win32,60.52536013,,,,,,,,,,,,,,,,,,,,,,,,,,,,,,,,,24,2.2791,1,0,3,3,24,1,8,×,3,8 × 3,congruent,largerFirst,2,1,24,,,,,,,,
,,,,,,,,,,,,,,,827,2022-01-12_18h45.21.490,multiplicationStroop,2021.2.3,Win32,60.52536013,,,,,,,,,,,,,,,,,,,,,,,,,,,,,,,,,16,1.8721,1,0,4,4,19,1,8,×,2,8 × 2,congruent,largerFirst,2,1,16,,,,,,,,
,,,,,,,,,,,,,,,827,2022-01-12_18h45.21.490,multiplicationStroop,2021.2.3,Win32,60.52536013,,,,,,,,,,,,,,,,,,,,,,,,,,,,,,,,,36,3.3124,1,0,5,5,14,1,9,×,4,9 × 4,congruent,largerFirst,2,1,36,,,,,,,,
,,,,,,,,,,,,,,,827,2022-01-12_18h45.21.490,multiplicationStroop,2021.2.3,Win32,60.52536013,,,,,,,,,,,,,,,,,,,,,,,,,,,,,,,,,18,2.2145,1,0,6,6,25,1,6,×,3,6 × 3,congruent,largerFirst,2,1,18,,,,,,,,
,,,,,,,,,,,,,,,827,2022-01-12_18h45.21.490,multiplicationStroop,2021.2.3,Win32,60.52536013,,,,,,,,,,,,,,,,,,,,,,,,,,,,,,,,,9,1.833,1,0,7,7,29,1,3,×,3,3 × 3,neutral,tie,1,2,9,,,,,,,,
,,,,,,,,,,,,,,,827,2022-01-12_18h45.21.490,multiplicationStroop,2021.2.3,Win32,60.52536013,,,,,,,,,,,,,,,,,,,,,,,,,,,,,,,,,4,1.6995,1,0,8,8,28,1,2,×,2,2 × 2,neutral,tie,1,2,4,,,,,,,,
,,,,,,,,,,,,,,,827,2022-01-12_18h45.21.490,multiplicationStroop,2021.2.3,Win32,60.52536013,,,,,,,,,,,,,,,,,,,,,,,,,,,,,,,,,49,2.7678,1,0,9,9,33,1,7,×,7,7 × 7,neutral,tie,1,2,49,,,,,,,,
,,,,,,,,,,,,,,,827,2022-01-12_18h45.21.490,multiplicationStroop,2021.2.3,Win32,60.52536013,,,,,,,,,,,,,,,,,,,,,,,,,,,,,,,,,12,2.9668,1,0,10,10,5,1,2,×,6,2 × 6,congruent,smallerFirst,1,2,12,,,,,,,,
,,,,,,,,,,,,,,,827,2022-01-12_18h45.21.490,multiplicationStroop,2021.2.3,Win32,60.52536013,,,,,,,,,,,,,,,,,,,,,,,,,,,,,,,,,30,2.0518,1,0,11,11,1,1,5,×,6,5 × 6,congruent,smallerFirst,1,2,30,,,,,,,,
,,,,,,,,,,,,,,,827,2022-01-12_18h45.21.490,multiplicationStroop,2021.2.3,Win32,60.52536013,,,,,,,,,,,,,,,,,,,,,,,,,,,,,,,,,48,2.699,1,0,12,12,4,1,6,×,8,6 × 8,congruent,smallerFirst,1,2,48,,,,,,,,
,,,,,,,,,,,,,,,827,2022-01-12_18h45.21.490,multiplicationStroop,2021.2.3,Win32,60.52536013,,,,,,,,,,,,,,,,,,,,,,,,,,,,,,,,,18,2.0805,1,0,13,13,8,1,2,×,9,2 × 9,congruent,smallerFirst,1,2,18,,,,,,,,
,,,,,,,,,,,,,,,827,2022-01-12_18h45.21.490,multiplicationStroop,2021.2.3,Win32,60.52536013,,,,,,,,,,,,,,,,,,,,,,,,,,,,,,,,,40,2.366,1,0,14,14,20,1,8,×,5,8 × 5,congruent,largerFirst,2,1,40,,,,,,,,
,,,,,,,,,,,,,,,827,2022-01-12_18h45.21.490,multiplicationStroop,2021.2.3,Win32,60.52536013,,,,,,,,,,,,,,,,,,,,,,,,,,,,,,,,,64,2.7016,1,0,15,15,34,1,8,×,8,8 × 8,neutral,tie,1,2,64,,,,,,,,
,,,,,,,,,,,,,,,827,2022-01-12_18h45.21.490,multiplicationStroop,2021.2.3,Win32,60.52536013,,,,,,,,,,,,,,,,,,,,,,,,,,,,,,,,,8,2.0821,1,0,16,16,23,1,4,×,2,4 × 2,congruent,largerFirst,2,1,8,,,,,,,,
,,,,,,,,,,,,,,,827,2022-01-12_18h45.21.490,multiplicationStroop,2021.2.3,Win32,60.52536013,,,,,,,,,,,,,,,,,,,,,,,,,,,,,,,,,63,2.7819,1,0,17,17,7,1,7,×,9,7 × 9,congruent,smallerFirst,1,2,63,,,,,,,,
,,,,,,,,,,,,,,,827,2022-01-12_18h45.21.490,multiplicationStroop,2021.2.3,Win32,60.52536013,,,,,,,,,,,,,,,,,,,,,,,,,,,,,,,,,16,2.5851,1,0,18,18,30,1,4,×,4,4 × 4,neutral,tie,1,2,16,,,,,,,,
,,,,,,,,,,,,,,,827,2022-01-12_18h45.21.490,multiplicationStroop,2021.2.3,Win32,60.52536013,,,,,,,,,,,,,,,,,,,,,,,,,,,,,,,,,25,2.0642,1,0,19,19,31,1,5,×,5,5 × 5,neutral,tie,1,2,25,,,,,,,,
,,,,,,,,,,,,,,,827,2022-01-12_18h45.21.490,multiplicationStroop,2021.2.3,Win32,60.52536013,,,,,,,,,,,,,,,,,,,,,,,,,,,,,,,,,54,2.6323,1,0,20,20,26,1,9,×,6,9 × 6,congruent,largerFirst,2,1,54,,,,,,,,
,,,,,,,,,,,,,,,827,2022-01-12_18h45.21.490,multiplicationStroop,2021.2.3,Win32,60.52536013,,,,,,,,,,,,,,,,,,,,,,,,,,,,,,,,,81,2.0158,1,0,21,21,35,1,9,×,9,9 × 9,neutral,tie,1,2,81,,,,,,,,
,,,,,,,,,,,,,,,827,2022-01-12_18h45.21.490,multiplicationStroop,2021.2.3,Win32,60.52536013,,,,,,,,,,,,,,,,,,,,,,,,,,,,,,,,,45,2.4156,1,0,22,22,9,1,5,×,9,5 × 9,congruent,smallerFirst,1,2,45,,,,,,,,
,,,,,,,,,,,,,,,827,2022-01-12_18h45.21.490,multiplicationStroop,2021.2.3,Win32,60.52536013,,,,,,,,,,,,,,,,,,,,,,,,,,,,,,,,,42,3.2319,1,0,23,23,17,1,7,×,6,7 × 6,congruent,largerFirst,2,1,42,,,,,,,,
,,,,,,,,,,,,,,,827,2022-01-12_18h45.21.490,multiplicationStroop,2021.2.3,Win32,60.52536013,,,,,,,,,,,,,,,,,,,,,,,,,,,,,,,,,32,2.6849,1,0,24,24,6,1,4,×,8,4 × 8,congruent,smallerFirst,1,2,32,,,,,,,,
,,,,,,,,,,,,,,,827,2022-01-12_18h45.21.490,multiplicationStroop,2021.2.3,Win32,60.52536013,,,,,,,,,,,,,,,,,,,,,,,,,,,,,,,,,24,1.9358,1,0,25,25,11,1,4,×,6,4 × 6,congruent,smallerFirst,1,2,24,,,,,,,,
,,,,,,,,,,,,,,,827,2022-01-12_18h45.21.490,multiplicationStroop,2021.2.3,Win32,60.52536013,,,,,,,,,,,,,,,,,,,,,,,,,,,,,,,,,27,4.5956,1,0,26,26,12,1,3,×,9,3 × 9,congruent,smallerFirst,1,2,27,,,,,,,,
,,,,,,,,,,,,,,,827,2022-01-12_18h45.21.490,multiplicationStroop,2021.2.3,Win32,60.52536013,,,,,,,,,,,,,,,,,,,,,,,,,,,,,,,,,56,3.4656,1,0,27,27,22,1,8,×,7,8 × 7,congruent,largerFirst,2,1,56,,,,,,,,
,,,,,,,,,,,,,,,827,2022-01-12_18h45.21.490,multiplicationStroop,2021.2.3,Win32,60.52536013,,,,,,,,,,,,,,,,,,,,,,,,,,,,,,,,,35,1.9884,1,0,28,28,15,1,7,×,5,7 × 5,congruent,largerFirst,2,1,35,,,,,,,,
,,,,,,,,,,,,,,,827,2022-01-12_18h45.21.490,multiplicationStroop,2021.2.3,Win32,60.52536013,,,,,,,,,,,,,,,,,,,,,,,,,,,,,,,,,28,3.1629,1,0,29,29,13,1,4,×,7,4 × 7,congruent,smallerFirst,1,2,28,,,,,,,,
,,,,,,,,,,,,,,,827,2022-01-12_18h45.21.490,multiplicationStroop,2021.2.3,Win32,60.52536013,,,,,,,,,,,,,,,,,,,,,,,,,,,,,,,,,12,1.7852,1,0,30,30,16,1,4,×,3,4 × 3,congruent,largerFirst,2,1,12,,,,,,,,
,,,,,,,,,,,,,,,827,2022-01-12_18h45.21.490,multiplicationStroop,2021.2.3,Win32,60.52536013,,,,,,,,,,,,,,,,,,,,,,,,,,,,,,,,,36,1.9997,1,0,31,31,32,1,6,×,6,6 × 6,neutral,tie,1,2,36,,,,,,,,
,,,,,,,,,,,,,,,827,2022-01-12_18h45.21.490,multiplicationStroop,2021.2.3,Win32,60.52536013,,,,,,,,,,,,,,,,,,,,,,,,,,,,,,,,,6,1.8315,1,0,32,32,27,1,3,×,2,3 × 2,congruent,largerFirst,2,1,6,,,,,,,,
,,,,,,,,,,,,,,,827,2022-01-12_18h45.21.490,multiplicationStroop,2021.2.3,Win32,60.52536013,,,,,,,,,,,,,,,,,,,,,,,,,,,,,,,,,21,1.9996,1,0,33,33,2,1,3,×,7,3 × 7,congruent,smallerFirst,1,2,21,,,,,,,,
,,,,,,,,,,,,,,,827,2022-01-12_18h45.21.490,multiplicationStroop,2021.2.3,Win32,60.52536013,,,,,,,,,,,,,,,,,,,,,,,,,,,,,,,,,15,1.7825,1,0,34,34,18,1,5,×,3,5 × 3,congruent,largerFirst,2,1,15,,,,,,,,
,,,,,,,,,,,,,,,827,2022-01-12_18h45.21.490,multiplicationStroop,2021.2.3,Win32,60.52536013,,,,,,,,,,,,,,,,,,,,,,,,,,,,,,,,,10,1.8181,1,0,35,35,10,1,2,×,5,2 × 5,congruent,smallerFirst,1,2,10,,,,,,,,
,,,,,,,,,,,,,,,827,2022-01-12_18h45.21.490,multiplicationStroop,2021.2.3,Win32,60.52536013,,,,,,,,,,,,,,,,,,,,,,,,,,,,,,,,,,,,,,,,,,,,,,,,,,0,0,0,3,1,stimulusFile/mult_blk4_congruent.xlsx,,
,,,,,,,,,,,,,,,827,2022-01-12_18h45.21.490,multiplicationStroop,2021.2.3,Win32,60.52536013,,,,,,,,,,,,,,,,,,,,,,,,,,,,,,,space,4.3109,35,2.2971,1,0,0,0,1,1,5,×,7,5 × 7,congruent,smallerFirst,1,2,35,,,,,,,,
,,,,,,,,,,,,,,,827,2022-01-12_18h45.21.490,multiplicationStroop,2021.2.3,Win32,60.52536013,,,,,,,,,,,,,,,,,,,,,,,,,,,,,,,,,20,1.8021,1,0,1,1,7,1,4,×,5,4 × 5,congruent,smallerFirst,1,2,20,,,,,,,,
,,,,,,,,,,,,,,,827,2022-01-12_18h45.21.490,multiplicationStroop,2021.2.3,Win32,60.52536013,,,,,,,,,,,,,,,,,,,,,,,,,,,,,,,,,81,1.8996,1,0,2,2,35,1,9,×,9,9 × 9,neutral,tie,2,1,81,,,,,,,,
,,,,,,,,,,,,,,,827,2022-01-12_18h45.21.490,multiplicationStroop,2021.2.3,Win32,60.52536013,,,,,,,,,,,,,,,,,,,,,,,,,,,,,,,,,9,1.8159,1,0,3,3,29,1,3,×,3,3 × 3,neutral,tie,2,1,9,,,,,,,,
,,,,,,,,,,,,,,,827,2022-01-12_18h45.21.490,multiplicationStroop,2021.2.3,Win32,60.52536013,,,,,,,,,,,,,,,,,,,,,,,,,,,,,,,,,63,4.1324,1,0,4,4,21,1,9,×,7,9 × 7,congruent,largerFirst,2,1,63,,,,,,,,
,,,,,,,,,,,,,,,827,2022-01-12_18h45.21.490,multiplicationStroop,2021.2.3,Win32,60.52536013,,,,,,,,,,,,,,,,,,,,,,,,,,,,,,,,,27,5.6352,1,0,5,5,26,1,9,×,3,9 × 3,congruent,largerFirst,2,1,27,,,,,,,,
,,,,,,,,,,,,,,,827,2022-01-12_18h45.21.490,multiplicationStroop,2021.2.3,Win32,60.52536013,,,,,,,,,,,,,,,,,,,,,,,,,,,,,,,,,25,1.7353,1,0,6,6,31,1,5,×,5,5 × 5,neutral,tie,2,1,25,,,,,,,,
,,,,,,,,,,,,,,,827,2022-01-12_18h45.21.490,multiplicationStroop,2021.2.3,Win32,60.52536013,,,,,,,,,,,,,,,,,,,,,,,,,,,,,,,,,40,1.8164,1,0,7,7,6,1,5,×,8,5 × 8,congruent,smallerFirst,1,2,40,,,,,,,,
,,,,,,,,,,,,,,,827,2022-01-12_18h45.21.490,multiplicationStroop,2021.2.3,Win32,60.52536013,,,,,,,,,,,,,,,,,,,,,,,,,,,,,,,,,16,2.5659,1,0,8,8,30,1,4,×,4,4 × 4,neutral,tie,2,1,16,,,,,,,,
,,,,,,,,,,,,,,,827,2022-01-12_18h45.21.490,multiplicationStroop,2021.2.3,Win32,60.52536013,,,,,,,,,,,,,,,,,,,,,,,,,,,,,,,,,30,1.8659,1,0,9,9,15,1,6,×,5,6 × 5,congruent,largerFirst,2,1,30,,,,,,,,
,,,,,,,,,,,,,,,827,2022-01-12_18h45.21.490,multiplicationStroop,2021.2.3,Win32,60.52536013,,,,,,,,,,,,,,,,,,,,,,,,,,,,,,,,,45,2.316,1,0,10,10,23,1,9,×,5,9 × 5,congruent,largerFirst,2,1,45,,,,,,,,
,,,,,,,,,,,,,,,827,2022-01-12_18h45.21.490,multiplicationStroop,2021.2.3,Win32,60.52536013,,,,,,,,,,,,,,,,,,,,,,,,,,,,,,,,,36,2.2327,1,0,11,11,0,1,4,×,9,4 × 9,congruent,smallerFirst,1,2,36,,,,,,,,
,,,,,,,,,,,,,,,827,2022-01-12_18h45.21.490,multiplicationStroop,2021.2.3,Win32,60.52536013,,,,,,,,,,,,,,,,,,,,,,,,,,,,,,,,,48,2.5519,1,0,12,12,18,1,8,×,6,8 × 6,congruent,largerFirst,2,1,48,,,,,,,,
,,,,,,,,,,,,,,,827,2022-01-12_18h45.21.490,multiplicationStroop,2021.2.3,Win32,60.52536013,,,,,,,,,,,,,,,,,,,,,,,,,,,,,,,,,21,1.6146,1,0,13,13,16,1,7,×,3,7 × 3,congruent,largerFirst,2,1,21,,,,,,,,
,,,,,,,,,,,,,,,827,2022-01-12_18h45.21.490,multiplicationStroop,2021.2.3,Win32,60.52536013,,,,,,,,,,,,,,,,,,,,,,,,,,,,,,,,,14,1.666,1,0,14,14,14,1,7,×,2,7 × 2,congruent,largerFirst,2,1,14,,,,,,,,
,,,,,,,,,,,,,,,827,2022-01-12_18h45.21.490,multiplicationStroop,2021.2.3,Win32,60.52536013,,,,,,,,,,,,,,,,,,,,,,,,,,,,,,,,,12,1.8658,1,0,15,15,2,1,3,×,4,3 × 4,congruent,smallerFirst,1,2,12,,,,,,,,
,,,,,,,,,,,,,,,827,2022-01-12_18h45.21.490,multiplicationStroop,2021.2.3,Win32,60.52536013,,,,,,,,,,,,,,,,,,,,,,,,,,,,,,,,,10,1.6494,1,0,16,16,24,1,5,×,2,5 × 2,congruent,largerFirst,2,1,10,,,,,,,,
,,,,,,,,,,,,,,,827,2022-01-12_18h45.21.490,multiplicationStroop,2021.2.3,Win32,60.52536013,,,,,,,,,,,,,,,,,,,,,,,,,,,,,,,,,42,3.1495,1,0,17,17,3,1,6,×,7,6 × 7,congruent,smallerFirst,1,2,42,,,,,,,,
,,,,,,,,,,,,,,,827,2022-01-12_18h45.21.490,multiplicationStroop,2021.2.3,Win32,60.52536013,,,,,,,,,,,,,,,,,,,,,,,,,,,,,,,,,8,2.8857,1,0,18,18,9,1,2,×,4,2 × 4,congruent,smallerFirst,1,2,8,,,,,,,,
,,,,,,,,,,,,,,,827,2022-01-12_18h45.21.490,multiplicationStroop,2021.2.3,Win32,60.52536013,,,,,,,,,,,,,,,,,,,,,,,,,,,,,,,,,36,2.0323,1,0,19,19,32,1,6,×,6,6 × 6,neutral,tie,2,1,36,,,,,,,,
,,,,,,,,,,,,,,,827,2022-01-12_18h45.21.490,multiplicationStroop,2021.2.3,Win32,60.52536013,,,,,,,,,,,,,,,,,,,,,,,,,,,,,,,,,54,2.5997,1,0,20,20,12,1,6,×,9,6 × 9,congruent,smallerFirst,1,2,54,,,,,,,,
,,,,,,,,,,,,,,,827,2022-01-12_18h45.21.490,multiplicationStroop,2021.2.3,Win32,60.52536013,,,,,,,,,,,,,,,,,,,,,,,,,,,,,,,,,64,2.0521,1,0,21,21,34,1,8,×,8,8 × 8,neutral,tie,2,1,64,,,,,,,,
,,,,,,,,,,,,,,,827,2022-01-12_18h45.21.490,multiplicationStroop,2021.2.3,Win32,60.52536013,,,,,,,,,,,,,,,,,,,,,,,,,,,,,,,,,16,2.349,1,0,22,22,5,1,2,×,8,2 × 8,congruent,smallerFirst,1,2,16,,,,,,,,
,,,,,,,,,,,,,,,827,2022-01-12_18h45.21.490,multiplicationStroop,2021.2.3,Win32,60.52536013,,,,,,,,,,,,,,,,,,,,,,,,,,,,,,,,,49,2.2662,1,0,23,23,33,1,7,×,7,7 × 7,neutral,tie,2,1,49,,,,,,,,
,,,,,,,,,,,,,,,827,2022-01-12_18h45.21.490,multiplicationStroop,2021.2.3,Win32,60.52536013,,,,,,,,,,,,,,,,,,,,,,,,,,,,,,,,,24,1.8492,1,0,24,24,25,1,6,×,4,6 × 4,congruent,largerFirst,2,1,24,,,,,,,,
,,,,,,,,,,,,,,,827,2022-01-12_18h45.21.490,multiplicationStroop,2021.2.3,Win32,60.52536013,,,,,,,,,,,,,,,,,,,,,,,,,,,,,,,,,18,2.2494,1,0,25,25,22,1,9,×,2,9 × 2,congruent,largerFirst,2,1,18,,,,,,,,
,,,,,,,,,,,,,,,827,2022-01-12_18h45.21.490,multiplicationStroop,2021.2.3,Win32,60.52536013,,,,,,,,,,,,,,,,,,,,,,,,,,,,,,,,,4,1.5332,1,0,26,26,28,1,2,×,2,2 × 2,neutral,tie,2,1,4,,,,,,,,
,,,,,,,,,,,,,,,827,2022-01-12_18h45.21.490,multiplicationStroop,2021.2.3,Win32,60.52536013,,,,,,,,,,,,,,,,,,,,,,,,,,,,,,,,,72,3.3489,1,0,27,27,17,1,9,×,8,9 × 8,congruent,largerFirst,2,1,72,,,,,,,,
,,,,,,,,,,,,,,,827,2022-01-12_18h45.21.490,multiplicationStroop,2021.2.3,Win32,60.52536013,,,,,,,,,,,,,,,,,,,,,,,,,,,,,,,,,28,2.8492,1,0,28,28,27,1,7,×,4,7 × 4,congruent,largerFirst,2,1,28,,,,,,,,
,,,,,,,,,,,,,,,827,2022-01-12_18h45.21.490,multiplicationStroop,2021.2.3,Win32,60.52536013,,,,,,,,,,,,,,,,,,,,,,,,,,,,,,,,,12,1.5357,1,0,29,29,19,1,6,×,2,6 × 2,congruent,largerFirst,2,1,12,,,,,,,,
,,,,,,,,,,,,,,,827,2022-01-12_18h45.21.490,multiplicationStroop,2021.2.3,Win32,60.52536013,,,,,,,,,,,,,,,,,,,,,,,,,,,,,,,,,18,2.7494,1,0,30,30,11,1,3,×,6,3 × 6,congruent,smallerFirst,1,2,18,,,,,,,,
,,,,,,,,,,,,,,,827,2022-01-12_18h45.21.490,multiplicationStroop,2021.2.3,Win32,60.52536013,,,,,,,,,,,,,,,,,,,,,,,,,,,,,,,,,6,1.7992,1,0,31,31,13,1,2,×,3,2 × 3,congruent,smallerFirst,1,2,6,,,,,,,,
,,,,,,,,,,,,,,,827,2022-01-12_18h45.21.490,multiplicationStroop,2021.2.3,Win32,60.52536013,,,,,,,,,,,,,,,,,,,,,,,,,,,,,,,,,56,2.5827,1,0,32,32,8,1,7,×,8,7 × 8,congruent,smallerFirst,1,2,56,,,,,,,,
,,,,,,,,,,,,,,,827,2022-01-12_18h45.21.490,multiplicationStroop,2021.2.3,Win32,60.52536013,,,,,,,,,,,,,,,,,,,,,,,,,,,,,,,,,24,2.8997,1,0,33,33,10,1,3,×,8,3 × 8,congruent,smallerFirst,1,2,24,,,,,,,,
,,,,,,,,,,,,,,,827,2022-01-12_18h45.21.490,multiplicationStroop,2021.2.3,Win32,60.52536013,,,,,,,,,,,,,,,,,,,,,,,,,,,,,,,,,32,2.585,1,0,34,34,20,1,8,×,4,8 × 4,congruent,largerFirst,2,1,32,,,,,,,,
,,,,,,,,,,,,,,,827,2022-01-12_18h45.21.490,multiplicationStroop,2021.2.3,Win32,60.52536013,,,,,,,,,,,,,,,,,,,,,,,,,,,,,,,,,15,1.7663,1,0,35,35,4,1,3,×,5,3 × 5,congruent,smallerFirst,1,2,15,,,,,,,,
,,,,,,,,,,,,,,,827,2022-01-12_18h45.21.490,multiplicationStroop,2021.2.3,Win32,60.52536013,,,,,,,,,,,,,,,,,,,,,,,,,,,,,,,,,,,,,,,,,,,,,,,,,,0,1,1,2,1,stimulusFile/mult_blk3_congruent.xlsx,,
,,,,,,,,,,,,,,,827,2022-01-12_18h45.21.490,multiplicationStroop,2021.2.3,Win32,60.52536013,,,,,,,,,,,,,,,,,,,,,,,,,,,,,,,space,2.322,36,1.8581,1,0,0,0,32,1,6,×,6,6 × 6,incongruent,tie,1,2,36,,,,,,,,
,,,,,,,,,,,,,,,827,2022-01-12_18h45.21.490,multiplicationStroop,2021.2.3,Win32,60.52536013,,,,,,,,,,,,,,,,,,,,,,,,,,,,,,,,,9,1.7,1,0,1,1,29,1,3,×,3,3 × 3,incongruent,tie,1,2,9,,,,,,,,
,,,,,,,,,,,,,,,827,2022-01-12_18h45.21.490,multiplicationStroop,2021.2.3,Win32,60.52536013,,,,,,,,,,,,,,,,,,,,,,,,,,,,,,,,,20,3.1825,1,0,2,2,27,1,5,×,4,5 × 4,incongruent,largerFirst,1,2,20,,,,,,,,
,,,,,,,,,,,,,,,827,2022-01-12_18h45.21.490,multiplicationStroop,2021.2.3,Win32,60.52536013,,,,,,,,,,,,,,,,,,,,,,,,,,,,,,,,,30,2.8996,1,0,3,3,25,1,6,×,5,6 × 5,incongruent,largerFirst,1,2,30,,,,,,,,
,,,,,,,,,,,,,,,827,2022-01-12_18h45.21.490,multiplicationStroop,2021.2.3,Win32,60.52536013,,,,,,,,,,,,,,,,,,,,,,,,,,,,,,,,,21,1.6354,1,0,4,4,26,1,7,×,3,7 × 3,incongruent,largerFirst,1,2,21,,,,,,,,
,,,,,,,,,,,,,,,827,2022-01-12_18h45.21.490,multiplicationStroop,2021.2.3,Win32,60.52536013,,,,,,,,,,,,,,,,,,,,,,,,,,,,,,,,,54,2.3162,0,0,5,5,17,1,7,×,6,7 × 6,incongruent,largerFirst,1,2,42,,,,,,,,
,,,,,,,,,,,,,,,827,2022-01-12_18h45.21.490,multiplicationStroop,2021.2.3,Win32,60.52536013,,,,,,,,,,,,,,,,,,,,,,,,,,,,,,,,,28,4.5993,1,0,6,6,16,1,7,×,4,7 × 4,incongruent,largerFirst,1,2,28,,,,,,,,
,,,,,,,,,,,,,,,827,2022-01-12_18h45.21.490,multiplicationStroop,2021.2.3,Win32,60.52536013,,,,,,,,,,,,,,,,,,,,,,,,,,,,,,,,,36,3.3519,1,0,7,7,15,1,9,×,4,9 × 4,incongruent,largerFirst,1,2,36,,,,,,,,
,,,,,,,,,,,,,,,827,2022-01-12_18h45.21.490,multiplicationStroop,2021.2.3,Win32,60.52536013,,,,,,,,,,,,,,,,,,,,,,,,,,,,,,,,,24,2.9519,1,0,8,8,9,1,3,×,8,3 × 8,incongruent,smallerFirst,2,1,24,,,,,,,,
,,,,,,,,,,,,,,,827,2022-01-12_18h45.21.490,multiplicationStroop,2021.2.3,Win32,60.52536013,,,,,,,,,,,,,,,,,,,,,,,,,,,,,,,,,12,2.2162,1,0,9,9,5,1,3,×,4,3 × 4,incongruent,smallerFirst,2,1,12,,,,,,,,
,,,,,,,,,,,,,,,827,2022-01-12_18h45.21.490,multiplicationStroop,2021.2.3,Win32,60.52536013,,,,,,,,,,,,,,,,,,,,,,,,,,,,,,,,,18,2.1328,1,0,10,10,2,1,2,×,9,2 × 9,incongruent,smallerFirst,2,1,18,,,,,,,,
,,,,,,,,,,,,,,,827,2022-01-12_18h45.21.490,multiplicationStroop,2021.2.3,Win32,60.52536013,,,,,,,,,,,,,,,,,,,,,,,,,,,,,,,,,27,4.1165,1,0,11,11,18,1,9,×,3,9 × 3,incongruent,largerFirst,1,2,27,,,,,,,,
,,,,,,,,,,,,,,,827,2022-01-12_18h45.21.490,multiplicationStroop,2021.2.3,Win32,60.52536013,,,,,,,,,,,,,,,,,,,,,,,,,,,,,,,,,8,2.1848,1,0,12,12,24,1,4,×,2,4 × 2,incongruent,largerFirst,1,2,8,,,,,,,,
,,,,,,,,,,,,,,,827,2022-01-12_18h45.21.490,multiplicationStroop,2021.2.3,Win32,60.52536013,,,,,,,,,,,,,,,,,,,,,,,,,,,,,,,,,48,2.8187,1,0,13,13,1,1,6,×,8,6 × 8,incongruent,smallerFirst,2,1,48,,,,,,,,
,,,,,,,,,,,,,,,827,2022-01-12_18h45.21.490,multiplicationStroop,2021.2.3,Win32,60.52536013,,,,,,,,,,,,,,,,,,,,,,,,,,,,,,,,,6,2.4494,1,0,14,14,11,1,2,×,3,2 × 3,incongruent,smallerFirst,2,1,6,,,,,,,,
,,,,,,,,,,,,,,,827,2022-01-12_18h45.21.490,multiplicationStroop,2021.2.3,Win32,60.52536013,,,,,,,,,,,,,,,,,,,,,,,,,,,,,,,,,35,3.0994,1,0,15,15,12,1,5,×,7,5 × 7,incongruent,smallerFirst,2,1,35,,,,,,,,
,,,,,,,,,,,,,,,827,2022-01-12_18h45.21.490,multiplicationStroop,2021.2.3,Win32,60.52536013,,,,,,,,,,,,,,,,,,,,,,,,,,,,,,,,,18,3.0357,1,0,16,16,8,1,3,×,6,3 × 6,incongruent,smallerFirst,2,1,18,,,,,,,,
,,,,,,,,,,,,,,,827,2022-01-12_18h45.21.490,multiplicationStroop,2021.2.3,Win32,60.52536013,,,,,,,,,,,,,,,,,,,,,,,,,,,,,,,,,10,1.7162,1,0,17,17,21,1,5,×,2,5 × 2,incongruent,largerFirst,1,2,10,,,,,,,,
,,,,,,,,,,,,,,,827,2022-01-12_18h45.21.490,multiplicationStroop,2021.2.3,Win32,60.52536013,,,,,,,,,,,,,,,,,,,,,,,,,,,,,,,,,15,1.9,1,0,18,18,10,1,3,×,5,3 × 5,incongruent,smallerFirst,2,1,15,,,,,,,,
,,,,,,,,,,,,,,,827,2022-01-12_18h45.21.490,multiplicationStroop,2021.2.3,Win32,60.52536013,,,,,,,,,,,,,,,,,,,,,,,,,,,,,,,,,16,1.8489,1,0,19,19,30,1,4,×,4,4 × 4,incongruent,tie,1,2,16,,,,,,,,
,,,,,,,,,,,,,,,827,2022-01-12_18h45.21.490,multiplicationStroop,2021.2.3,Win32,60.52536013,,,,,,,,,,,,,,,,,,,,,,,,,,,,,,,,,25,2.0826,1,0,20,20,31,1,5,×,5,5 × 5,incongruent,tie,1,2,25,,,,,,,,
,,,,,,,,,,,,,,,827,2022-01-12_18h45.21.490,multiplicationStroop,2021.2.3,Win32,60.52536013,,,,,,,,,,,,,,,,,,,,,,,,,,,,,,,,,45,2.4828,1,0,21,21,22,1,9,×,5,9 × 5,incongruent,largerFirst,1,2,45,,,,,,,,
,,,,,,,,,,,,,,,827,2022-01-12_18h45.21.490,multiplicationStroop,2021.2.3,Win32,60.52536013,,,,,,,,,,,,,,,,,,,,,,,,,,,,,,,,,72,2.716,1,0,22,22,0,1,8,×,9,8 × 9,incongruent,smallerFirst,2,1,72,,,,,,,,
,,,,,,,,,,,,,,,827,2022-01-12_18h45.21.490,multiplicationStroop,2021.2.3,Win32,60.52536013,,,,,,,,,,,,,,,,,,,,,,,,,,,,,,,,,14,2.3351,1,0,23,23,4,1,2,×,7,2 × 7,incongruent,smallerFirst,2,1,14,,,,,,,,
,,,,,,,,,,,,,,,827,2022-01-12_18h45.21.490,multiplicationStroop,2021.2.3,Win32,60.52536013,,,,,,,,,,,,,,,,,,,,,,,,,,,,,,,,,16,1.8495,1,0,24,24,23,1,8,×,2,8 × 2,incongruent,largerFirst,1,2,16,,,,,,,,
,,,,,,,,,,,,,,,827,2022-01-12_18h45.21.490,multiplicationStroop,2021.2.3,Win32,60.52536013,,,,,,,,,,,,,,,,,,,,,,,,,,,,,,,,,56,2.6496,1,0,25,25,14,1,8,×,7,8 × 7,incongruent,largerFirst,1,2,56,,,,,,,,
,,,,,,,,,,,,,,,827,2022-01-12_18h45.21.490,multiplicationStroop,2021.2.3,Win32,60.52536013,,,,,,,,,,,,,,,,,,,,,,,,,,,,,,,,,49,2.349,1,0,26,26,33,1,7,×,7,7 × 7,incongruent,tie,1,2,49,,,,,,,,
,,,,,,,,,,,,,,,827,2022-01-12_18h45.21.490,multiplicationStroop,2021.2.3,Win32,60.52536013,,,,,,,,,,,,,,,,,,,,,,,,,,,,,,,,,12,2.4661,1,0,27,27,19,1,6,×,2,6 × 2,incongruent,largerFirst,1,2,12,,,,,,,,
,,,,,,,,,,,,,,,827,2022-01-12_18h45.21.490,multiplicationStroop,2021.2.3,Win32,60.52536013,,,,,,,,,,,,,,,,,,,,,,,,,,,,,,,,,24,2.5828,1,0,28,28,20,1,6,×,4,6 × 4,incongruent,largerFirst,1,2,24,,,,,,,,
,,,,,,,,,,,,,,,827,2022-01-12_18h45.21.490,multiplicationStroop,2021.2.3,Win32,60.52536013,,,,,,,,,,,,,,,,,,,,,,,,,,,,,,,,,64,2.2189,1,0,29,29,34,1,8,×,8,8 × 8,incongruent,tie,1,2,64,,,,,,,,
,,,,,,,,,,,,,,,827,2022-01-12_18h45.21.490,multiplicationStroop,2021.2.3,Win32,60.52536013,,,,,,,,,,,,,,,,,,,,,,,,,,,,,,,,,54,3.0162,1,0,30,30,6,1,6,×,9,6 × 9,incongruent,smallerFirst,2,1,54,,,,,,,,
,,,,,,,,,,,,,,,827,2022-01-12_18h45.21.490,multiplicationStroop,2021.2.3,Win32,60.52536013,,,,,,,,,,,,,,,,,,,,,,,,,,,,,,,,,40,2.8327,1,0,31,31,13,1,5,×,8,5 × 8,incongruent,smallerFirst,2,1,40,,,,,,,,
,,,,,,,,,,,,,,,827,2022-01-12_18h45.21.490,multiplicationStroop,2021.2.3,Win32,60.52536013,,,,,,,,,,,,,,,,,,,,,,,,,,,,,,,,,81,2.1688,1,0,32,32,35,1,9,×,9,9 × 9,incongruent,tie,1,2,81,,,,,,,,
,,,,,,,,,,,,,,,827,2022-01-12_18h45.21.490,multiplicationStroop,2021.2.3,Win32,60.52536013,,,,,,,,,,,,,,,,,,,,,,,,,,,,,,,,,4,1.4993,1,0,33,33,28,1,2,×,2,2 × 2,incongruent,tie,1,2,4,,,,,,,,
,,,,,,,,,,,,,,,827,2022-01-12_18h45.21.490,multiplicationStroop,2021.2.3,Win32,60.52536013,,,,,,,,,,,,,,,,,,,,,,,,,,,,,,,,,63,3.1327,1,0,34,34,3,1,7,×,9,7 × 9,incongruent,smallerFirst,2,1,63,,,,,,,,
,,,,,,,,,,,,,,,827,2022-01-12_18h45.21.490,multiplicationStroop,2021.2.3,Win32,60.52536013,,,,,,,,,,,,,,,,,,,,,,,,,,,,,,,,,32,2.666,1,0,35,35,7,1,4,×,8,4 × 8,incongruent,smallerFirst,2,1,32,,,,,,,,
,,,,,,,,,,,,,,,827,2022-01-12_18h45.21.490,multiplicationStroop,2021.2.3,Win32,60.52536013,,,,,,,,,,,,,,,,,,,,,,,,,,,,,,,,,,,,,,,,,,,,,,,,,,0,2,2,5,1,stimulusFile/mult_blk6_INcongruent.xlsx,,
,,,,,,,,,,,,,,,827,2022-01-12_18h45.21.490,multiplicationStroop,2021.2.3,Win32,60.52536013,,,,,,,,,,,,,,,,,,,,,,,,,,,,,,,space,7.0046,21,1.8128,1,0,0,0,12,1,3,×,7,3 × 7,incongruent,smallerFirst,2,1,21,,,,,,,,
,,,,,,,,,,,,,,,827,2022-01-12_18h45.21.490,multiplicationStroop,2021.2.3,Win32,60.52536013,,,,,,,,,,,,,,,,,,,,,,,,,,,,,,,,,20,2.3659,1,0,1,1,13,1,4,×,5,4 × 5,incongruent,smallerFirst,2,1,20,,,,,,,,
,,,,,,,,,,,,,,,827,2022-01-12_18h45.21.490,multiplicationStroop,2021.2.3,Win32,60.52536013,,,,,,,,,,,,,,,,,,,,,,,,,,,,,,,,,63,2.8996,1,0,2,2,17,1,9,×,7,9 × 7,incongruent,largerFirst,1,2,63,,,,,,,,
,,,,,,,,,,,,,,,827,2022-01-12_18h45.21.490,multiplicationStroop,2021.2.3,Win32,60.52536013,,,,,,,,,,,,,,,,,,,,,,,,,,,,,,,,,18,3.1523,1,0,3,3,16,1,9,×,2,9 × 2,incongruent,largerFirst,1,2,18,,,,,,,,
,,,,,,,,,,,,,,,827,2022-01-12_18h45.21.490,multiplicationStroop,2021.2.3,Win32,60.52536013,,,,,,,,,,,,,,,,,,,,,,,,,,,,,,,,,81,3.749,1,0,4,4,35,1,9,×,9,9 × 9,neutral,tie,2,1,81,,,,,,,,
,,,,,,,,,,,,,,,827,2022-01-12_18h45.21.490,multiplicationStroop,2021.2.3,Win32,60.52536013,,,,,,,,,,,,,,,,,,,,,,,,,,,,,,,,,4,1.5526,1,0,5,5,28,1,2,×,2,2 × 2,neutral,tie,2,1,4,,,,,,,,
,,,,,,,,,,,,,,,827,2022-01-12_18h45.21.490,multiplicationStroop,2021.2.3,Win32,60.52536013,,,,,,,,,,,,,,,,,,,,,,,,,,,,,,,,,64,1.9491,1,0,6,6,34,1,8,×,8,8 × 8,neutral,tie,2,1,64,,,,,,,,
,,,,,,,,,,,,,,,827,2022-01-12_18h45.21.490,multiplicationStroop,2021.2.3,Win32,60.52536013,,,,,,,,,,,,,,,,,,,,,,,,,,,,,,,,,40,1.8494,1,0,7,7,27,1,8,×,5,8 × 5,incongruent,largerFirst,1,2,40,,,,,,,,
,,,,,,,,,,,,,,,827,2022-01-12_18h45.21.490,multiplicationStroop,2021.2.3,Win32,60.52536013,,,,,,,,,,,,,,,,,,,,,,,,,,,,,,,,,49,1.9658,1,0,8,8,33,1,7,×,7,7 × 7,neutral,tie,2,1,49,,,,,,,,
,,,,,,,,,,,,,,,827,2022-01-12_18h45.21.490,multiplicationStroop,2021.2.3,Win32,60.52536013,,,,,,,,,,,,,,,,,,,,,,,,,,,,,,,,,24,3.366,1,0,9,9,6,1,4,×,6,4 × 6,incongruent,smallerFirst,2,1,24,,,,,,,,
,,,,,,,,,,,,,,,827,2022-01-12_18h45.21.490,multiplicationStroop,2021.2.3,Win32,60.52536013,,,,,,,,,,,,,,,,,,,,,,,,,,,,,,,,,18,2.7998,1,0,10,10,22,1,6,×,3,6 × 3,incongruent,largerFirst,1,2,18,,,,,,,,
,,,,,,,,,,,,,,,827,2022-01-12_18h45.21.490,multiplicationStroop,2021.2.3,Win32,60.52536013,,,,,,,,,,,,,,,,,,,,,,,,,,,,,,,,,42,3.5023,1,0,11,11,3,1,6,×,7,6 × 7,incongruent,smallerFirst,2,1,42,,,,,,,,
,,,,,,,,,,,,,,,827,2022-01-12_18h45.21.490,multiplicationStroop,2021.2.3,Win32,60.52536013,,,,,,,,,,,,,,,,,,,,,,,,,,,,,,,,,35,4.5854,1,0,12,12,26,1,7,×,5,7 × 5,incongruent,largerFirst,1,2,35,,,,,,,,
,,,,,,,,,,,,,,,827,2022-01-12_18h45.21.490,multiplicationStroop,2021.2.3,Win32,60.52536013,,,,,,,,,,,,,,,,,,,,,,,,,,,,,,,,,16,2.3184,1,0,13,13,9,1,2,×,8,2 × 8,incongruent,smallerFirst,2,1,16,,,,,,,,
,,,,,,,,,,,,,,,827,2022-01-12_18h45.21.490,multiplicationStroop,2021.2.3,Win32,60.52536013,,,,,,,,,,,,,,,,,,,,,,,,,,,,,,,,,36,2.2328,1,0,14,14,32,1,6,×,6,6 × 6,neutral,tie,2,1,36,,,,,,,,
,,,,,,,,,,,,,,,827,2022-01-12_18h45.21.490,multiplicationStroop,2021.2.3,Win32,60.52536013,,,,,,,,,,,,,,,,,,,,,,,,,,,,,,,,,48,3.5162,1,0,15,15,15,1,8,×,6,8 × 6,incongruent,largerFirst,1,2,48,,,,,,,,
,,,,,,,,,,,,,,,827,2022-01-12_18h45.21.490,multiplicationStroop,2021.2.3,Win32,60.52536013,,,,,,,,,,,,,,,,,,,,,,,,,,,,,,,,,30,2.5182,1,0,16,16,11,1,5,×,6,5 × 6,incongruent,smallerFirst,2,1,30,,,,,,,,
,,,,,,,,,,,,,,,827,2022-01-12_18h45.21.490,multiplicationStroop,2021.2.3,Win32,60.52536013,,,,,,,,,,,,,,,,,,,,,,,,,,,,,,,,,54,2.6327,1,0,17,17,20,1,9,×,6,9 × 6,incongruent,largerFirst,1,2,54,,,,,,,,
,,,,,,,,,,,,,,,827,2022-01-12_18h45.21.490,multiplicationStroop,2021.2.3,Win32,60.52536013,,,,,,,,,,,,,,,,,,,,,,,,,,,,,,,,,72,3.6162,1,0,18,18,14,1,9,×,8,9 × 8,incongruent,largerFirst,1,2,72,,,,,,,,
,,,,,,,,,,,,,,,827,2022-01-12_18h45.21.490,multiplicationStroop,2021.2.3,Win32,60.52536013,,,,,,,,,,,,,,,,,,,,,,,,,,,,,,,,,14,2.9853,1,0,19,19,18,1,7,×,2,7 × 2,incongruent,largerFirst,1,2,14,,,,,,,,
,,,,,,,,,,,,,,,827,2022-01-12_18h45.21.490,multiplicationStroop,2021.2.3,Win32,60.52536013,,,,,,,,,,,,,,,,,,,,,,,,,,,,,,,,,56,2.5665,1,0,20,20,0,1,7,×,8,7 × 8,incongruent,smallerFirst,2,1,56,,,,,,,,
,,,,,,,,,,,,,,,827,2022-01-12_18h45.21.490,multiplicationStroop,2021.2.3,Win32,60.52536013,,,,,,,,,,,,,,,,,,,,,,,,,,,,,,,,,8,2.3496,1,0,21,21,10,1,2,×,4,2 × 4,incongruent,smallerFirst,2,1,8,,,,,,,,
,,,,,,,,,,,,,,,827,2022-01-12_18h45.21.490,multiplicationStroop,2021.2.3,Win32,60.52536013,,,,,,,,,,,,,,,,,,,,,,,,,,,,,,,,,27,3.2826,1,0,22,22,4,1,3,×,9,3 × 9,incongruent,smallerFirst,2,1,27,,,,,,,,
,,,,,,,,,,,,,,,827,2022-01-12_18h45.21.490,multiplicationStroop,2021.2.3,Win32,60.52536013,,,,,,,,,,,,,,,,,,,,,,,,,,,,,,,,,25,1.8525,1,0,23,23,31,1,5,×,5,5 × 5,neutral,tie,2,1,25,,,,,,,,
,,,,,,,,,,,,,,,827,2022-01-12_18h45.21.490,multiplicationStroop,2021.2.3,Win32,60.52536013,,,,,,,,,,,,,,,,,,,,,,,,,,,,,,,,,32,2.0826,1,0,24,24,21,1,8,×,4,8 × 4,incongruent,largerFirst,1,2,32,,,,,,,,
,,,,,,,,,,,,,,,827,2022-01-12_18h45.21.490,multiplicationStroop,2021.2.3,Win32,60.52536013,,,,,,,,,,,,,,,,,,,,,,,,,,,,,,,,,15,3.4159,1,0,25,25,24,1,5,×,3,5 × 3,incongruent,largerFirst,1,2,15,,,,,,,,
,,,,,,,,,,,,,,,827,2022-01-12_18h45.21.490,multiplicationStroop,2021.2.3,Win32,60.52536013,,,,,,,,,,,,,,,,,,,,,,,,,,,,,,,,,12,2.4357,1,0,26,26,19,1,4,×,3,4 × 3,incongruent,largerFirst,1,2,12,,,,,,,,
,,,,,,,,,,,,,,,827,2022-01-12_18h45.21.490,multiplicationStroop,2021.2.3,Win32,60.52536013,,,,,,,,,,,,,,,,,,,,,,,,,,,,,,,,,28,2.1659,1,0,27,27,2,1,4,×,7,4 × 7,incongruent,smallerFirst,2,1,28,,,,,,,,
,,,,,,,,,,,,,,,827,2022-01-12_18h45.21.490,multiplicationStroop,2021.2.3,Win32,60.52536013,,,,,,,,,,,,,,,,,,,,,,,,,,,,,,,,,10,2.4657,1,0,28,28,7,1,2,×,5,2 × 5,incongruent,smallerFirst,2,1,10,,,,,,,,
,,,,,,,,,,,,,,,827,2022-01-12_18h45.21.490,multiplicationStroop,2021.2.3,Win32,60.52536013,,,,,,,,,,,,,,,,,,,,,,,,,,,,,,,,,12,2.3163,1,0,29,29,5,1,2,×,6,2 × 6,incongruent,smallerFirst,2,1,12,,,,,,,,
,,,,,,,,,,,,,,,827,2022-01-12_18h45.21.490,multiplicationStroop,2021.2.3,Win32,60.52536013,,,,,,,,,,,,,,,,,,,,,,,,,,,,,,,,,16,2.1827,1,0,30,30,30,1,4,×,4,4 × 4,neutral,tie,2,1,16,,,,,,,,
,,,,,,,,,,,,,,,827,2022-01-12_18h45.21.490,multiplicationStroop,2021.2.3,Win32,60.52536013,,,,,,,,,,,,,,,,,,,,,,,,,,,,,,,,,6,2.0492,1,0,31,31,25,1,3,×,2,3 × 2,incongruent,largerFirst,1,2,6,,,,,,,,
,,,,,,,,,,,,,,,827,2022-01-12_18h45.21.490,multiplicationStroop,2021.2.3,Win32,60.52536013,,,,,,,,,,,,,,,,,,,,,,,,,,,,,,,,,24,2.316,1,0,32,32,23,1,8,×,3,8 × 3,incongruent,largerFirst,1,2,24,,,,,,,,
,,,,,,,,,,,,,,,827,2022-01-12_18h45.21.490,multiplicationStroop,2021.2.3,Win32,60.52536013,,,,,,,,,,,,,,,,,,,,,,,,,,,,,,,,,45,2.3523,1,0,33,33,8,1,5,×,9,5 × 9,incongruent,smallerFirst,2,1,45,,,,,,,,
,,,,,,,,,,,,,,,827,2022-01-12_18h45.21.490,multiplicationStroop,2021.2.3,Win32,60.52536013,,,,,,,,,,,,,,,,,,,,,,,,,,,,,,,,,36,2.8162,1,0,34,34,1,1,4,×,9,4 × 9,incongruent,smallerFirst,2,1,36,,,,,,,,
,,,,,,,,,,,,,,,827,2022-01-12_18h45.21.490,multiplicationStroop,2021.2.3,Win32,60.52536013,,,,,,,,,,,,,,,,,,,,,,,,,,,,,,,,,9,1.8324,1,0,35,35,29,1,3,×,3,3 × 3,neutral,tie,2,1,9,,,,,,,,
,,,,,,,,,,,,,,,827,2022-01-12_18h45.21.490,multiplicationStroop,2021.2.3,Win32,60.52536013,,,,,,,,,,,,,,,,,,,,,,,,,,,,,,,,,,,,,,,,,,,,,,,,,,0,3,3,4,1,stimulusFile/mult_blk5_INcongruent.xlsx,,
,,,,,,,,,,,,,,,827,2022-01-12_18h45.21.490,multiplicationStroop,2021.2.3,Win32,60.52536013,,,,,,,,,,,,,,,,,,,,,,,,,,,,,,,space,2.764,42,2.6341,1,0,0,0,6,1,6,×,7,6 × 7,neutral,smallerFirst,1.5,1.5,42,,,,,,,,
,,,,,,,,,,,,,,,827,2022-01-12_18h45.21.490,multiplicationStroop,2021.2.3,Win32,60.52536013,,,,,,,,,,,,,,,,,,,,,,,,,,,,,,,,,12,1.6847,1,0,1,1,21,1,4,×,3,4 × 3,neutral,largerFirst,1.5,1.5,12,,,,,,,,
,,,,,,,,,,,,,,,827,2022-01-12_18h45.21.490,multiplicationStroop,2021.2.3,Win32,60.52536013,,,,,,,,,,,,,,,,,,,,,,,,,,,,,,,,,49,2.1991,1,0,2,2,33,1,7,×,7,7 × 7,neutral,tie,1.5,1.5,49,,,,,,,,
,,,,,,,,,,,,,,,827,2022-01-12_18h45.21.490,multiplicationStroop,2021.2.3,Win32,60.52536013,,,,,,,,,,,,,,,,,,,,,,,,,,,,,,,,,18,1.9164,1,0,3,3,18,1,9,×,2,9 × 2,neutral,largerFirst,1.5,1.5,18,,,,,,,,
,,,,,,,,,,,,,,,827,2022-01-12_18h45.21.490,multiplicationStroop,2021.2.3,Win32,60.52536013,,,,,,,,,,,,,,,,,,,,,,,,,,,,,,,,,72,2.066,1,0,4,4,11,1,8,×,9,8 × 9,neutral,smallerFirst,1.5,1.5,72,,,,,,,,
,,,,,,,,,,,,,,,827,2022-01-12_18h45.21.490,multiplicationStroop,2021.2.3,Win32,60.52536013,,,,,,,,,,,,,,,,,,,,,,,,,,,,,,,,,56,2.7159,1,0,5,5,9,1,7,×,8,7 × 8,neutral,smallerFirst,1.5,1.5,56,,,,,,,,
,,,,,,,,,,,,,,,827,2022-01-12_18h45.21.490,multiplicationStroop,2021.2.3,Win32,60.52536013,,,,,,,,,,,,,,,,,,,,,,,,,,,,,,,,,36,2.6993,1,0,6,6,27,1,9,×,4,9 × 4,neutral,largerFirst,1.5,1.5,36,,,,,,,,
,,,,,,,,,,,,,,,827,2022-01-12_18h45.21.490,multiplicationStroop,2021.2.3,Win32,60.52536013,,,,,,,,,,,,,,,,,,,,,,,,,,,,,,,,,6,3.6813,1,0,7,7,26,1,3,×,2,3 × 2,neutral,largerFirst,1.5,1.5,6,,,,,,,,
,,,,,,,,,,,,,,,827,2022-01-12_18h45.21.490,multiplicationStroop,2021.2.3,Win32,60.52536013,,,,,,,,,,,,,,,,,,,,,,,,,,,,,,,,,35,3.0857,1,0,8,8,1,1,5,×,7,5 × 7,neutral,smallerFirst,1.5,1.5,35,,,,,,,,
,,,,,,,,,,,,,,,827,2022-01-12_18h45.21.490,multiplicationStroop,2021.2.3,Win32,60.52536013,,,,,,,,,,,,,,,,,,,,,,,,,,,,,,,,,28,2.9523,1,0,9,9,17,1,7,×,4,7 × 4,neutral,largerFirst,1.5,1.5,28,,,,,,,,
,,,,,,,,,,,,,,,827,2022-01-12_18h45.21.490,multiplicationStroop,2021.2.3,Win32,60.52536013,,,,,,,,,,,,,,,,,,,,,,,,,,,,,,,,,12,1.7323,1,0,10,10,25,1,6,×,2,6 × 2,neutral,largerFirst,1.5,1.5,12,,,,,,,,
,,,,,,,,,,,,,,,827,2022-01-12_18h45.21.490,multiplicationStroop,2021.2.3,Win32,60.52536013,,,,,,,,,,,,,,,,,,,,,,,,,,,,,,,,,36,2.4161,1,0,11,11,32,1,6,×,6,6 × 6,neutral,tie,1.5,1.5,36,,,,,,,,
,,,,,,,,,,,,,,,827,2022-01-12_18h45.21.490,multiplicationStroop,2021.2.3,Win32,60.52536013,,,,,,,,,,,,,,,,,,,,,,,,,,,,,,,,,15,2.0826,1,0,12,12,5,1,3,×,5,3 × 5,neutral,smallerFirst,1.5,1.5,15,,,,,,,,
,,,,,,,,,,,,,,,827,2022-01-12_18h45.21.490,multiplicationStroop,2021.2.3,Win32,60.52536013,,,,,,,,,,,,,,,,,,,,,,,,,,,,,,,,,9,1.6664,1,0,13,13,29,1,3,×,3,3 × 3,neutral,tie,1.5,1.5,9,,,,,,,,
,,,,,,,,,,,,,,,827,2022-01-12_18h45.21.490,multiplicationStroop,2021.2.3,Win32,60.52536013,,,,,,,,,,,,,,,,,,,,,,,,,,,,,,,,,18,3.1824,1,0,14,14,0,1,3,×,6,3 × 6,neutral,smallerFirst,1.5,1.5,18,,,,,,,,
,,,,,,,,,,,,,,,827,2022-01-12_18h45.21.490,multiplicationStroop,2021.2.3,Win32,60.52536013,,,,,,,,,,,,,,,,,,,,,,,,,,,,,,,,,54,3.6521,1,0,15,15,7,1,6,×,9,6 × 9,neutral,smallerFirst,1.5,1.5,54,,,,,,,,
,,,,,,,,,,,,,,,827,2022-01-12_18h45.21.490,multiplicationStroop,2021.2.3,Win32,60.52536013,,,,,,,,,,,,,,,,,,,,,,,,,,,,,,,,,25,2.4517,1,0,16,16,31,1,5,×,5,5 × 5,neutral,tie,1.5,1.5,25,,,,,,,,
,,,,,,,,,,,,,,,827,2022-01-12_18h45.21.490,multiplicationStroop,2021.2.3,Win32,60.52536013,,,,,,,,,,,,,,,,,,,,,,,,,,,,,,,,,45,2.8661,1,0,17,17,10,1,5,×,9,5 × 9,neutral,smallerFirst,1.5,1.5,45,,,,,,,,
,,,,,,,,,,,,,,,827,2022-01-12_18h45.21.490,multiplicationStroop,2021.2.3,Win32,60.52536013,,,,,,,,,,,,,,,,,,,,,,,,,,,,,,,,,24,4.5823,1,0,18,18,22,1,8,×,3,8 × 3,neutral,largerFirst,1.5,1.5,24,,,,,,,,
,,,,,,,,,,,,,,,827,2022-01-12_18h45.21.490,multiplicationStroop,2021.2.3,Win32,60.52536013,,,,,,,,,,,,,,,,,,,,,,,,,,,,,,,,,14,2.1856,1,0,19,19,16,1,7,×,2,7 × 2,neutral,largerFirst,1.5,1.5,14,,,,,,,,
,,,,,,,,,,,,,,,827,2022-01-12_18h45.21.490,multiplicationStroop,2021.2.3,Win32,60.52536013,,,,,,,,,,,,,,,,,,,,,,,,,,,,,,,,,32,2.4325,1,0,20,20,23,1,8,×,4,8 × 4,neutral,largerFirst,1.5,1.5,32,,,,,,,,
,,,,,,,,,,,,,,,827,2022-01-12_18h45.21.490,multiplicationStroop,2021.2.3,Win32,60.52536013,,,,,,,,,,,,,,,,,,,,,,,,,,,,,,,,,21,2.9828,1,0,21,21,8,1,3,×,7,3 × 7,neutral,smallerFirst,1.5,1.5,21,,,,,,,,
,,,,,,,,,,,,,,,827,2022-01-12_18h45.21.490,multiplicationStroop,2021.2.3,Win32,60.52536013,,,,,,,,,,,,,,,,,,,,,,,,,,,,,,,,,24,2.6828,1,0,22,22,2,1,4,×,6,4 × 6,neutral,smallerFirst,1.5,1.5,24,,,,,,,,
,,,,,,,,,,,,,,,827,2022-01-12_18h45.21.490,multiplicationStroop,2021.2.3,Win32,60.52536013,,,,,,,,,,,,,,,,,,,,,,,,,,,,,,,,,16,2.2348,1,0,23,23,30,1,4,×,4,4 × 4,neutral,tie,1.5,1.5,16,,,,,,,,
,,,,,,,,,,,,,,,827,2022-01-12_18h45.21.490,multiplicationStroop,2021.2.3,Win32,60.52536013,,,,,,,,,,,,,,,,,,,,,,,,,,,,,,,,,30,1.8994,1,0,24,24,19,1,6,×,5,6 × 5,neutral,largerFirst,1.5,1.5,30,,,,,,,,
,,,,,,,,,,,,,,,827,2022-01-12_18h45.21.490,multiplicationStroop,2021.2.3,Win32,60.52536013,,,,,,,,,,,,,,,,,,,,,,,,,,,,,,,,,64,2.2831,1,0,25,25,34,1,8,×,8,8 × 8,neutral,tie,1.5,1.5,64,,,,,,,,
,,,,,,,,,,,,,,,827,2022-01-12_18h45.21.490,multiplicationStroop,2021.2.3,Win32,60.52536013,,,,,,,,,,,,,,,,,,,,,,,,,,,,,,,,,16,2.5991,1,0,26,26,13,1,2,×,8,2 × 8,neutral,smallerFirst,1.5,1.5,16,,,,,,,,
,,,,,,,,,,,,,,,827,2022-01-12_18h45.21.490,multiplicationStroop,2021.2.3,Win32,60.52536013,,,,,,,,,,,,,,,,,,,,,,,,,,,,,,,,,48,4.6329,1,0,27,27,15,1,8,×,6,8 × 6,neutral,largerFirst,1.5,1.5,48,,,,,,,,
,,,,,,,,,,,,,,,827,2022-01-12_18h45.21.490,multiplicationStroop,2021.2.3,Win32,60.52536013,,,,,,,,,,,,,,,,,,,,,,,,,,,,,,,,,10,2.8019,1,0,28,28,4,1,2,×,5,2 × 5,neutral,smallerFirst,1.5,1.5,10,,,,,,,,
,,,,,,,,,,,,,,,827,2022-01-12_18h45.21.490,multiplicationStroop,2021.2.3,Win32,60.52536013,,,,,,,,,,,,,,,,,,,,,,,,,,,,,,,,,8,2.666,1,0,29,29,3,1,2,×,4,2 × 4,neutral,smallerFirst,1.5,1.5,8,,,,,,,,
,,,,,,,,,,,,,,,827,2022-01-12_18h45.21.490,multiplicationStroop,2021.2.3,Win32,60.52536013,,,,,,,,,,,,,,,,,,,,,,,,,,,,,,,,,27,2.9492,1,0,30,30,14,1,9,×,3,9 × 3,neutral,largerFirst,1.5,1.5,27,,,,,,,,
,,,,,,,,,,,,,,,827,2022-01-12_18h45.21.490,multiplicationStroop,2021.2.3,Win32,60.52536013,,,,,,,,,,,,,,,,,,,,,,,,,,,,,,,,,20,2.1857,1,0,31,31,20,1,5,×,4,5 × 4,neutral,largerFirst,1.5,1.5,20,,,,,,,,
,,,,,,,,,,,,,,,827,2022-01-12_18h45.21.490,multiplicationStroop,2021.2.3,Win32,60.52536013,,,,,,,,,,,,,,,,,,,,,,,,,,,,,,,,,40,2.4494,1,0,32,32,24,1,8,×,5,8 × 5,neutral,largerFirst,1.5,1.5,40,,,,,,,,
,,,,,,,,,,,,,,,827,2022-01-12_18h45.21.490,multiplicationStroop,2021.2.3,Win32,60.52536013,,,,,,,,,,,,,,,,,,,,,,,,,,,,,,,,,4,1.5162,1,0,33,33,28,1,2,×,2,2 × 2,neutral,tie,1.5,1.5,4,,,,,,,,
,,,,,,,,,,,,,,,827,2022-01-12_18h45.21.490,multiplicationStroop,2021.2.3,Win32,60.52536013,,,,,,,,,,,,,,,,,,,,,,,,,,,,,,,,,81,2.4493,1,0,34,34,35,1,9,×,9,9 × 9,neutral,tie,1.5,1.5,81,,,,,,,,
,,,,,,,,,,,,,,,827,2022-01-12_18h45.21.490,multiplicationStroop,2021.2.3,Win32,60.52536013,,,,,,,,,,,,,,,,,,,,,,,,,,,,,,,,,63,2.4833,1,0,35,35,12,1,7,×,9,7 × 9,neutral,smallerFirst,1.5,1.5,63,,,,,,,,
,,,,,,,,,,,,,,,827,2022-01-12_18h45.21.490,multiplicationStroop,2021.2.3,Win32,60.52536013,,,,,,,,,,,,,,,,,,,,,,,,,,,,,,,,,,,,,,,,,,,,,,,,,,0,4,4,1,1,stimulusFile/mult_blk2.xlsx,,
,,,,,,,,,,,,,,,827,2022-01-12_18h45.21.490,multiplicationStroop,2021.2.3,Win32,60.52536013,,,,,,,,,,,,,,,,,,,,,,,,,,,,,,,space,15.7542,81,2.0646,1,0,0,0,35,1,9,×,9,9 × 9,neutral,tie,1.5,1.5,81,,,,,,,,
,,,,,,,,,,,,,,,827,2022-01-12_18h45.21.490,multiplicationStroop,2021.2.3,Win32,60.52536013,,,,,,,,,,,,,,,,,,,,,,,,,,,,,,,,,18,2.6827,1,0,1,1,14,1,6,×,3,6 × 3,neutral,largerFirst,1.5,1.5,18,,,,,,,,
,,,,,,,,,,,,,,,827,2022-01-12_18h45.21.490,multiplicationStroop,2021.2.3,Win32,60.52536013,,,,,,,,,,,,,,,,,,,,,,,,,,,,,,,,,63,3.0826,1,0,2,2,26,1,9,×,7,9 × 7,neutral,largerFirst,1.5,1.5,63,,,,,,,,
,,,,,,,,,,,,,,,827,2022-01-12_18h45.21.490,multiplicationStroop,2021.2.3,Win32,60.52536013,,,,,,,,,,,,,,,,,,,,,,,,,,,,,,,,,56,2.0163,1,0,3,3,23,1,8,×,7,8 × 7,neutral,largerFirst,1.5,1.5,56,,,,,,,,
,,,,,,,,,,,,,,,827,2022-01-12_18h45.21.490,multiplicationStroop,2021.2.3,Win32,60.52536013,,,,,,,,,,,,,,,,,,,,,,,,,,,,,,,,,35,2.5994,1,0,4,4,15,1,7,×,5,7 × 5,neutral,largerFirst,1.5,1.5,35,,,,,,,,
,,,,,,,,,,,,,,,827,2022-01-12_18h45.21.490,multiplicationStroop,2021.2.3,Win32,60.52536013,,,,,,,,,,,,,,,,,,,,,,,,,,,,,,,,,18,1.8188,1,0,5,5,4,1,2,×,9,2 × 9,neutral,smallerFirst,1.5,1.5,18,,,,,,,,
,,,,,,,,,,,,,,,827,2022-01-12_18h45.21.490,multiplicationStroop,2021.2.3,Win32,60.52536013,,,,,,,,,,,,,,,,,,,,,,,,,,,,,,,,,4,1.3996,1,0,6,6,28,1,2,×,2,2 × 2,neutral,tie,1.5,1.5,4,,,,,,,,
,,,,,,,,,,,,,,,827,2022-01-12_18h45.21.490,multiplicationStroop,2021.2.3,Win32,60.52536013,,,,,,,,,,,,,,,,,,,,,,,,,,,,,,,,,28,2.0493,1,0,7,7,3,1,4,×,7,4 × 7,neutral,smallerFirst,1.5,1.5,28,,,,,,,,
,,,,,,,,,,,,,,,827,2022-01-12_18h45.21.490,multiplicationStroop,2021.2.3,Win32,60.52536013,,,,,,,,,,,,,,,,,,,,,,,,,,,,,,,,,24,2.3995,1,0,8,8,8,1,3,×,8,3 × 8,neutral,smallerFirst,1.5,1.5,24,,,,,,,,
,,,,,,,,,,,,,,,827,2022-01-12_18h45.21.490,multiplicationStroop,2021.2.3,Win32,60.52536013,,,,,,,,,,,,,,,,,,,,,,,,,,,,,,,,,9,2.2689,1,0,9,9,29,1,3,×,3,3 × 3,neutral,tie,1.5,1.5,9,,,,,,,,
,,,,,,,,,,,,,,,827,2022-01-12_18h45.21.490,multiplicationStroop,2021.2.3,Win32,60.52536013,,,,,,,,,,,,,,,,,,,,,,,,,,,,,,,,,20,2.8329,1,0,10,10,6,1,4,×,5,4 × 5,neutral,smallerFirst,1.5,1.5,20,,,,,,,,
,,,,,,,,,,,,,,,827,2022-01-12_18h45.21.490,multiplicationStroop,2021.2.3,Win32,60.52536013,,,,,,,,,,,,,,,,,,,,,,,,,,,,,,,,,10,1.9659,1,0,11,11,18,1,5,×,2,5 × 2,neutral,largerFirst,1.5,1.5,10,,,,,,,,
,,,,,,,,,,,,,,,827,2022-01-12_18h45.21.490,multiplicationStroop,2021.2.3,Win32,60.52536013,,,,,,,,,,,,,,,,,,,,,,,,,,,,,,,,,6,2.0661,1,0,12,12,12,1,2,×,3,2 × 3,neutral,smallerFirst,1.5,1.5,6,,,,,,,,
,,,,,,,,,,,,,,,827,2022-01-12_18h45.21.490,multiplicationStroop,2021.2.3,Win32,60.52536013,,,,,,,,,,,,,,,,,,,,,,,,,,,,,,,,,25,2.0657,1,0,13,13,31,1,5,×,5,5 × 5,neutral,tie,1.5,1.5,25,,,,,,,,
,,,,,,,,,,,,,,,827,2022-01-12_18h45.21.490,multiplicationStroop,2021.2.3,Win32,60.52536013,,,,,,,,,,,,,,,,,,,,,,,,,,,,,,,,,21,1.7998,1,0,14,14,22,1,7,×,3,7 × 3,neutral,largerFirst,1.5,1.5,21,,,,,,,,
,,,,,,,,,,,,,,,827,2022-01-12_18h45.21.490,multiplicationStroop,2021.2.3,Win32,60.52536013,,,,,,,,,,,,,,,,,,,,,,,,,,,,,,,,,40,2.3828,1,0,15,15,10,1,5,×,8,5 × 8,neutral,smallerFirst,1.5,1.5,40,,,,,,,,
,,,,,,,,,,,,,,,827,2022-01-12_18h45.21.490,multiplicationStroop,2021.2.3,Win32,60.52536013,,,,,,,,,,,,,,,,,,,,,,,,,,,,,,,,,72,2.2327,1,0,16,16,25,1,9,×,8,9 × 8,neutral,largerFirst,1.5,1.5,72,,,,,,,,
,,,,,,,,,,,,,,,827,2022-01-12_18h45.21.490,multiplicationStroop,2021.2.3,Win32,60.52536013,,,,,,,,,,,,,,,,,,,,,,,,,,,,,,,,,48,3.2828,1,0,17,17,1,1,6,×,8,6 × 8,neutral,smallerFirst,1.5,1.5,48,,,,,,,,
,,,,,,,,,,,,,,,827,2022-01-12_18h45.21.490,multiplicationStroop,2021.2.3,Win32,60.52536013,,,,,,,,,,,,,,,,,,,,,,,,,,,,,,,,,36,2.1357,1,0,18,18,32,1,6,×,6,6 × 6,neutral,tie,1.5,1.5,36,,,,,,,,
,,,,,,,,,,,,,,,827,2022-01-12_18h45.21.490,multiplicationStroop,2021.2.3,Win32,60.52536013,,,,,,,,,,,,,,,,,,,,,,,,,,,,,,,,,32,2.166,1,0,19,19,9,1,4,×,8,4 × 8,neutral,smallerFirst,1.5,1.5,32,,,,,,,,
,,,,,,,,,,,,,,,827,2022-01-12_18h45.21.490,multiplicationStroop,2021.2.3,Win32,60.52536013,,,,,,,,,,,,,,,,,,,,,,,,,,,,,,,,,16,2.4994,1,0,20,20,27,1,8,×,2,8 × 2,neutral,largerFirst,1.5,1.5,16,,,,,,,,
,,,,,,,,,,,,,,,827,2022-01-12_18h45.21.490,multiplicationStroop,2021.2.3,Win32,60.52536013,,,,,,,,,,,,,,,,,,,,,,,,,,,,,,,,,49,2.2326,1,0,21,21,33,1,7,×,7,7 × 7,neutral,tie,1.5,1.5,49,,,,,,,,
,,,,,,,,,,,,,,,827,2022-01-12_18h45.21.490,multiplicationStroop,2021.2.3,Win32,60.52536013,,,,,,,,,,,,,,,,,,,,,,,,,,,,,,,,,64,2.4855,1,0,22,22,34,1,8,×,8,8 × 8,neutral,tie,1.5,1.5,64,,,,,,,,
,,,,,,,,,,,,,,,827,2022-01-12_18h45.21.490,multiplicationStroop,2021.2.3,Win32,60.52536013,,,,,,,,,,,,,,,,,,,,,,,,,,,,,,,,,12,2.2158,1,0,23,23,11,1,2,×,6,2 × 6,neutral,smallerFirst,1.5,1.5,12,,,,,,,,
,,,,,,,,,,,,,,,827,2022-01-12_18h45.21.490,multiplicationStroop,2021.2.3,Win32,60.52536013,,,,,,,,,,,,,,,,,,,,,,,,,,,,,,,,,14,2.2825,1,0,24,24,2,1,2,×,7,2 × 7,neutral,smallerFirst,1.5,1.5,14,,,,,,,,
,,,,,,,,,,,,,,,827,2022-01-12_18h45.21.490,multiplicationStroop,2021.2.3,Win32,60.52536013,,,,,,,,,,,,,,,,,,,,,,,,,,,,,,,,,15,2.2495,1,0,25,25,19,1,5,×,3,5 × 3,neutral,largerFirst,1.5,1.5,15,,,,,,,,
,,,,,,,,,,,,,,,827,2022-01-12_18h45.21.490,multiplicationStroop,2021.2.3,Win32,60.52536013,,,,,,,,,,,,,,,,,,,,,,,,,,,,,,,,,45,2.2824,1,0,26,26,24,1,9,×,5,9 × 5,neutral,largerFirst,1.5,1.5,45,,,,,,,,
,,,,,,,,,,,,,,,827,2022-01-12_18h45.21.490,multiplicationStroop,2021.2.3,Win32,60.52536013,,,,,,,,,,,,,,,,,,,,,,,,,,,,,,,,,30,1.9997,1,0,27,27,5,1,5,×,6,5 × 6,neutral,smallerFirst,1.5,1.5,30,,,,,,,,
,,,,,,,,,,,,,,,827,2022-01-12_18h45.21.490,multiplicationStroop,2021.2.3,Win32,60.52536013,,,,,,,,,,,,,,,,,,,,,,,,,,,,,,,,,16,1.7997,1,0,28,28,30,1,4,×,4,4 × 4,neutral,tie,1.5,1.5,16,,,,,,,,
,,,,,,,,,,,,,,,827,2022-01-12_18h45.21.490,multiplicationStroop,2021.2.3,Win32,60.52536013,,,,,,,,,,,,,,,,,,,,,,,,,,,,,,,,,37,7.8654,0,0,29,29,0,1,3,×,9,3 × 9,neutral,smallerFirst,1.5,1.5,27,,,,,,,,
,,,,,,,,,,,,,,,827,2022-01-12_18h45.21.490,multiplicationStroop,2021.2.3,Win32,60.52536013,,,,,,,,,,,,,,,,,,,,,,,,,,,,,,,,,54,4.4354,1,0,30,30,21,1,9,×,6,9 × 6,neutral,largerFirst,1.5,1.5,54,,,,,,,,
,,,,,,,,,,,,,,,827,2022-01-12_18h45.21.490,multiplicationStroop,2021.2.3,Win32,60.52536013,,,,,,,,,,,,,,,,,,,,,,,,,,,,,,,,,42,4.2019,1,0,31,31,20,1,7,×,6,7 × 6,neutral,largerFirst,1.5,1.5,42,,,,,,,,
,,,,,,,,,,,,,,,827,2022-01-12_18h45.21.490,multiplicationStroop,2021.2.3,Win32,60.52536013,,,,,,,,,,,,,,,,,,,,,,,,,,,,,,,,,8,2.652,1,0,32,32,17,1,4,×,2,4 × 2,neutral,largerFirst,1.5,1.5,8,,,,,,,,
,,,,,,,,,,,,,,,827,2022-01-12_18h45.21.490,multiplicationStroop,2021.2.3,Win32,60.52536013,,,,,,,,,,,,,,,,,,,,,,,,,,,,,,,,,36,2.4354,1,0,33,33,13,1,4,×,9,4 × 9,neutral,smallerFirst,1.5,1.5,36,,,,,,,,
,,,,,,,,,,,,,,,827,2022-01-12_18h45.21.490,multiplicationStroop,2021.2.3,Win32,60.52536013,,,,,,,,,,,,,,,,,,,,,,,,,,,,,,,,,12,2.2491,1,0,34,34,7,1,3,×,4,3 × 4,neutral,smallerFirst,1.5,1.5,12,,,,,,,,
,,,,,,,,,,,,,,,827,2022-01-12_18h45.21.490,multiplicationStroop,2021.2.3,Win32,60.52536013,,,,,,,,,,,,,,,,,,,,,,,,,,,,,,,,,24,3.1998,1,0,35,35,16,1,6,×,4,6 × 4,neutral,largerFirst,1.5,1.5,24,,,,,,,,
,,,,,,,,,,,,,,,827,2022-01-12_18h45.21.490,multiplicationStroop,2021.2.3,Win32,60.52536013,,,,,,,,,,,,,,,,,,,,,,,,,,,,,,,,,,,,,,,,,,,,,,,,,,0,5,5,0,1,stimulusFile/mult_blk1.xlsx,,
,,,,,,,,,,,,,,,827,2022-01-12_18h45.21.490,multiplicationStroop,2021.2.3,Win32,60.52536013,,,,,,,,,,,,,,,,,,,,,,,,,,,,,,,,,,,,,,,,,,,,,,,,,,,,,,,,space,8.5465