welcomeKey_resp.keys,welcomeKey_resp.rt,X Scale,Y Scale,rt_resp_4.keys,rt_resp_4.corr,rt_resp_4.rt,speedtest_2.thisRepN,speedtest_2.thisTrialN,speedtest_2.thisN,speedtest_2.thisIndex,speedtest_2.ran,numberSc,posX,positionLayout,participant,date,expName,psychopyVersion,OS,frameRate,ct_instrresp.keys,ct_instrresp.rt,key_resp_2.keys,key_resp_2.rt,ct_keyResp.keys,ct_keyResp.corr,ct_keyResp.rt,trials.thisRepN,trials.thisTrialN,trials.thisN,trials.thisIndex,trials.ran,leftNo,rightNo,displayProblem,numDistance,leftNo_size,rightNo_size,Dims,keyAnswer,TS_Loop.thisRepN,TS_Loop.thisTrialN,TS_Loop.thisN,TS_Loop.thisIndex,TS_Loop.ran,Condition,ActionInst,instrImage,mltptaskInst_resp.keys,mltptaskInst_resp.rt,continue_resp_2.keys,continue_resp_2.rt,multp_Answer,multi_RT,multiplyCorr,LoopingMultiply.thisRepN,LoopingMultiply.thisTrialN,LoopingMultiply.thisN,LoopingMultiply.thisIndex,LoopingMultiply.ran,factor1,multiplySign,factor2,multliplyProblem,physicalSize,orderOperand,sizeF1,sizeF2,mult_answer,trials_stroop.thisRepN,trials_stroop.thisTrialN,trials_stroop.thisN,trials_stroop.thisIndex,trials_stroop.ran,multiplicationFile,esckey_resp_2.keys,esckey_resp_2.rt
y,9.897,39.9,40.1,left,1,0.613,0,0,0,1,1,2,-200,left,829,2022-02-16_20h44.04.414,multiplicationStroop,2021.2.3,Win32,59.95203837,,,,,,,,,,,,,,,,,,,,,,,,,,,,,,,,,,,,,,,,,,,,,,,,,,,,,,,,,
,,,,left,1,0.417,0,1,1,6,1,8,-200,left,829,2022-02-16_20h44.04.414,multiplicationStroop,2021.2.3,Win32,59.95203837,,,,,,,,,,,,,,,,,,,,,,,,,,,,,,,,,,,,,,,,,,,,,,,,,,,,,,,,,
,,,,right,1,0.365,0,2,2,12,1,6,200,right,829,2022-02-16_20h44.04.414,multiplicationStroop,2021.2.3,Win32,59.95203837,,,,,,,,,,,,,,,,,,,,,,,,,,,,,,,,,,,,,,,,,,,,,,,,,,,,,,,,,
,,,,right,1,0.415,0,3,3,10,1,3,200,right,829,2022-02-16_20h44.04.414,multiplicationStroop,2021.2.3,Win32,59.95203837,,,,,,,,,,,,,,,,,,,,,,,,,,,,,,,,,,,,,,,,,,,,,,,,,,,,,,,,,
,,,,left,1,0.367,0,4,4,4,1,6,-200,left,829,2022-02-16_20h44.04.414,multiplicationStroop,2021.2.3,Win32,59.95203837,,,,,,,,,,,,,,,,,,,,,,,,,,,,,,,,,,,,,,,,,,,,,,,,,,,,,,,,,
,,,,right,1,0.382,0,5,5,9,1,2,200,right,829,2022-02-16_20h44.04.414,multiplicationStroop,2021.2.3,Win32,59.95203837,,,,,,,,,,,,,,,,,,,,,,,,,,,,,,,,,,,,,,,,,,,,,,,,,,,,,,,,,
,,,,left,1,0.355,0,6,6,2,1,3,-200,left,829,2022-02-16_20h44.04.414,multiplicationStroop,2021.2.3,Win32,59.95203837,,,,,,,,,,,,,,,,,,,,,,,,,,,,,,,,,,,,,,,,,,,,,,,,,,,,,,,,,
,,,,left,1,0.382,0,7,7,0,1,1,-200,left,829,2022-02-16_20h44.04.414,multiplicationStroop,2021.2.3,Win32,59.95203837,,,,,,,,,,,,,,,,,,,,,,,,,,,,,,,,,,,,,,,,,,,,,,,,,,,,,,,,,
,,,,left,1,0.356,0,8,8,5,1,7,-200,left,829,2022-02-16_20h44.04.414,multiplicationStroop,2021.2.3,Win32,59.95203837,,,,,,,,,,,,,,,,,,,,,,,,,,,,,,,,,,,,,,,,,,,,,,,,,,,,,,,,,
,,,,right,1,0.366,0,9,9,8,1,1,200,right,829,2022-02-16_20h44.04.414,multiplicationStroop,2021.2.3,Win32,59.95203837,,,,,,,,,,,,,,,,,,,,,,,,,,,,,,,,,,,,,,,,,,,,,,,,,,,,,,,,,
,,,,right,1,0.416,0,10,10,11,1,4,200,right,829,2022-02-16_20h44.04.414,multiplicationStroop,2021.2.3,Win32,59.95203837,,,,,,,,,,,,,,,,,,,,,,,,,,,,,,,,,,,,,,,,,,,,,,,,,,,,,,,,,
,,,,left,1,0.388,0,11,11,3,1,4,-200,left,829,2022-02-16_20h44.04.414,multiplicationStroop,2021.2.3,Win32,59.95203837,,,,,,,,,,,,,,,,,,,,,,,,,,,,,,,,,,,,,,,,,,,,,,,,,,,,,,,,,
,,,,right,1,0.403,0,12,12,13,1,7,200,right,829,2022-02-16_20h44.04.414,multiplicationStroop,2021.2.3,Win32,59.95203837,,,,,,,,,,,,,,,,,,,,,,,,,,,,,,,,,,,,,,,,,,,,,,,,,,,,,,,,,
,,,,right,1,0.366,0,13,13,15,1,9,200,right,829,2022-02-16_20h44.04.414,multiplicationStroop,2021.2.3,Win32,59.95203837,,,,,,,,,,,,,,,,,,,,,,,,,,,,,,,,,,,,,,,,,,,,,,,,,,,,,,,,,
,,,,right,1,0.367,0,14,14,14,1,8,200,right,829,2022-02-16_20h44.04.414,multiplicationStroop,2021.2.3,Win32,59.95203837,,,,,,,,,,,,,,,,,,,,,,,,,,,,,,,,,,,,,,,,,,,,,,,,,,,,,,,,,
,,,,left,1,0.368,0,15,15,7,1,9,-200,left,829,2022-02-16_20h44.04.414,multiplicationStroop,2021.2.3,Win32,59.95203837,,,,,,,,,,,,,,,,,,,,,,,,,,,,,,,,,,,,,,,,,,,,,,,,,,,,,,,,,
,,,,right,1,0.422,1,0,16,10,1,3,200,right,829,2022-02-16_20h44.04.414,multiplicationStroop,2021.2.3,Win32,59.95203837,,,,,,,,,,,,,,,,,,,,,,,,,,,,,,,,,,,,,,,,,,,,,,,,,,,,,,,,,
,,,,right,1,0.4,1,1,17,9,1,2,200,right,829,2022-02-16_20h44.04.414,multiplicationStroop,2021.2.3,Win32,59.95203837,,,,,,,,,,,,,,,,,,,,,,,,,,,,,,,,,,,,,,,,,,,,,,,,,,,,,,,,,
,,,,left,1,0.369,1,2,18,4,1,6,-200,left,829,2022-02-16_20h44.04.414,multiplicationStroop,2021.2.3,Win32,59.95203837,,,,,,,,,,,,,,,,,,,,,,,,,,,,,,,,,,,,,,,,,,,,,,,,,,,,,,,,,
,,,,left,1,0.333,1,3,19,0,1,1,-200,left,829,2022-02-16_20h44.04.414,multiplicationStroop,2021.2.3,Win32,59.95203837,,,,,,,,,,,,,,,,,,,,,,,,,,,,,,,,,,,,,,,,,,,,,,,,,,,,,,,,,
,,,,right,1,0.424,1,4,20,14,1,8,200,right,829,2022-02-16_20h44.04.414,multiplicationStroop,2021.2.3,Win32,59.95203837,,,,,,,,,,,,,,,,,,,,,,,,,,,,,,,,,,,,,,,,,,,,,,,,,,,,,,,,,
,,,,right,1,0.371,1,5,21,15,1,9,200,right,829,2022-02-16_20h44.04.414,multiplicationStroop,2021.2.3,Win32,59.95203837,,,,,,,,,,,,,,,,,,,,,,,,,,,,,,,,,,,,,,,,,,,,,,,,,,,,,,,,,
,,,,left,1,0.42,1,6,22,6,1,8,-200,left,829,2022-02-16_20h44.04.414,multiplicationStroop,2021.2.3,Win32,59.95203837,,,,,,,,,,,,,,,,,,,,,,,,,,,,,,,,,,,,,,,,,,,,,,,,,,,,,,,,,
,,,,right,1,0.4,1,7,23,11,1,4,200,right,829,2022-02-16_20h44.04.414,multiplicationStroop,2021.2.3,Win32,59.95203837,,,,,,,,,,,,,,,,,,,,,,,,,,,,,,,,,,,,,,,,,,,,,,,,,,,,,,,,,
,,,,left,1,0.351,1,8,24,1,1,2,-200,left,829,2022-02-16_20h44.04.414,multiplicationStroop,2021.2.3,Win32,59.95203837,,,,,,,,,,,,,,,,,,,,,,,,,,,,,,,,,,,,,,,,,,,,,,,,,,,,,,,,,
,,,,right,1,0.332,1,9,25,13,1,7,200,right,829,2022-02-16_20h44.04.414,multiplicationStroop,2021.2.3,Win32,59.95203837,,,,,,,,,,,,,,,,,,,,,,,,,,,,,,,,,,,,,,,,,,,,,,,,,,,,,,,,,
,,,,right,1,0.383,1,10,26,12,1,6,200,right,829,2022-02-16_20h44.04.414,multiplicationStroop,2021.2.3,Win32,59.95203837,,,,,,,,,,,,,,,,,,,,,,,,,,,,,,,,,,,,,,,,,,,,,,,,,,,,,,,,,
,,,,left,1,0.436,1,11,27,5,1,7,-200,left,829,2022-02-16_20h44.04.414,multiplicationStroop,2021.2.3,Win32,59.95203837,,,,,,,,,,,,,,,,,,,,,,,,,,,,,,,,,,,,,,,,,,,,,,,,,,,,,,,,,
,,,,left,1,0.356,1,12,28,3,1,4,-200,left,829,2022-02-16_20h44.04.414,multiplicationStroop,2021.2.3,Win32,59.95203837,,,,,,,,,,,,,,,,,,,,,,,,,,,,,,,,,,,,,,,,,,,,,,,,,,,,,,,,,
,,,,left,1,0.32,1,13,29,2,1,3,-200,left,829,2022-02-16_20h44.04.414,multiplicationStroop,2021.2.3,Win32,59.95203837,,,,,,,,,,,,,,,,,,,,,,,,,,,,,,,,,,,,,,,,,,,,,,,,,,,,,,,,,
,,,,left,1,0.355,1,14,30,7,1,9,-200,left,829,2022-02-16_20h44.04.414,multiplicationStroop,2021.2.3,Win32,59.95203837,,,,,,,,,,,,,,,,,,,,,,,,,,,,,,,,,,,,,,,,,,,,,,,,,,,,,,,,,
,,,,right,1,0.417,1,15,31,8,1,1,200,right,829,2022-02-16_20h44.04.414,multiplicationStroop,2021.2.3,Win32,59.95203837,,,,,,,,,,,,,,,,,,,,,,,,,,,,,,,,,,,,,,,,,,,,,,,,,,,,,,,,,
,,,,right,1,0.333,2,0,32,15,1,9,200,right,829,2022-02-16_20h44.04.414,multiplicationStroop,2021.2.3,Win32,59.95203837,,,,,,,,,,,,,,,,,,,,,,,,,,,,,,,,,,,,,,,,,,,,,,,,,,,,,,,,,
,,,,right,1,0.382,2,1,33,11,1,4,200,right,829,2022-02-16_20h44.04.414,multiplicationStroop,2021.2.3,Win32,59.95203837,,,,,,,,,,,,,,,,,,,,,,,,,,,,,,,,,,,,,,,,,,,,,,,,,,,,,,,,,
,,,,left,1,0.402,2,2,34,1,1,2,-200,left,829,2022-02-16_20h44.04.414,multiplicationStroop,2021.2.3,Win32,59.95203837,,,,,,,,,,,,,,,,,,,,,,,,,,,,,,,,,,,,,,,,,,,,,,,,,,,,,,,,,
,,,,right,1,0.34,2,3,35,8,1,1,200,right,829,2022-02-16_20h44.04.414,multiplicationStroop,2021.2.3,Win32,59.95203837,,,,,,,,,,,,,,,,,,,,,,,,,,,,,,,,,,,,,,,,,,,,,,,,,,,,,,,,,
,,,,right,1,0.367,2,4,36,9,1,2,200,right,829,2022-02-16_20h44.04.414,multiplicationStroop,2021.2.3,Win32,59.95203837,,,,,,,,,,,,,,,,,,,,,,,,,,,,,,,,,,,,,,,,,,,,,,,,,,,,,,,,,
,,,,right,1,0.366,2,5,37,12,1,6,200,right,829,2022-02-16_20h44.04.414,multiplicationStroop,2021.2.3,Win32,59.95203837,,,,,,,,,,,,,,,,,,,,,,,,,,,,,,,,,,,,,,,,,,,,,,,,,,,,,,,,,
,,,,right,1,0.4,2,6,38,10,1,3,200,right,829,2022-02-16_20h44.04.414,multiplicationStroop,2021.2.3,Win32,59.95203837,,,,,,,,,,,,,,,,,,,,,,,,,,,,,,,,,,,,,,,,,,,,,,,,,,,,,,,,,
,,,,left,1,0.401,2,7,39,3,1,4,-200,left,829,2022-02-16_20h44.04.414,multiplicationStroop,2021.2.3,Win32,59.95203837,,,,,,,,,,,,,,,,,,,,,,,,,,,,,,,,,,,,,,,,,,,,,,,,,,,,,,,,,
,,,,left,1,0.302,2,8,40,4,1,6,-200,left,829,2022-02-16_20h44.04.414,multiplicationStroop,2021.2.3,Win32,59.95203837,,,,,,,,,,,,,,,,,,,,,,,,,,,,,,,,,,,,,,,,,,,,,,,,,,,,,,,,,
,,,,right,1,0.552,2,9,41,13,1,7,200,right,829,2022-02-16_20h44.04.414,multiplicationStroop,2021.2.3,Win32,59.95203837,,,,,,,,,,,,,,,,,,,,,,,,,,,,,,,,,,,,,,,,,,,,,,,,,,,,,,,,,
,,,,left,1,0.408,2,10,42,5,1,7,-200,left,829,2022-02-16_20h44.04.414,multiplicationStroop,2021.2.3,Win32,59.95203837,,,,,,,,,,,,,,,,,,,,,,,,,,,,,,,,,,,,,,,,,,,,,,,,,,,,,,,,,
,,,,right,1,0.302,2,11,43,14,1,8,200,right,829,2022-02-16_20h44.04.414,multiplicationStroop,2021.2.3,Win32,59.95203837,,,,,,,,,,,,,,,,,,,,,,,,,,,,,,,,,,,,,,,,,,,,,,,,,,,,,,,,,
,,,,left,1,0.341,2,12,44,6,1,8,-200,left,829,2022-02-16_20h44.04.414,multiplicationStroop,2021.2.3,Win32,59.95203837,,,,,,,,,,,,,,,,,,,,,,,,,,,,,,,,,,,,,,,,,,,,,,,,,,,,,,,,,
,,,,left,1,0.382,2,13,45,0,1,1,-200,left,829,2022-02-16_20h44.04.414,multiplicationStroop,2021.2.3,Win32,59.95203837,,,,,,,,,,,,,,,,,,,,,,,,,,,,,,,,,,,,,,,,,,,,,,,,,,,,,,,,,
,,,,left,1,0.335,2,14,46,7,1,9,-200,left,829,2022-02-16_20h44.04.414,multiplicationStroop,2021.2.3,Win32,59.95203837,,,,,,,,,,,,,,,,,,,,,,,,,,,,,,,,,,,,,,,,,,,,,,,,,,,,,,,,,
,,,,left,1,0.382,2,15,47,2,1,3,-200,left,829,2022-02-16_20h44.04.414,multiplicationStroop,2021.2.3,Win32,59.95203837,,,,,,,,,,,,,,,,,,,,,,,,,,,,,,,,,,,,,,,,,,,,,,,,,,,,,,,,,
,,,,left,1,0.349,3,0,48,3,1,4,-200,left,829,2022-02-16_20h44.04.414,multiplicationStroop,2021.2.3,Win32,59.95203837,,,,,,,,,,,,,,,,,,,,,,,,,,,,,,,,,,,,,,,,,,,,,,,,,,,,,,,,,
,,,,right,1,0.399,3,1,49,10,1,3,200,right,829,2022-02-16_20h44.04.414,multiplicationStroop,2021.2.3,Win32,59.95203837,,,,,,,,,,,,,,,,,,,,,,,,,,,,,,,,,,,,,,,,,,,,,,,,,,,,,,,,,
,,,,right,1,0.332,3,2,50,11,1,4,200,right,829,2022-02-16_20h44.04.414,multiplicationStroop,2021.2.3,Win32,59.95203837,,,,,,,,,,,,,,,,,,,,,,,,,,,,,,,,,,,,,,,,,,,,,,,,,,,,,,,,,
,,,,right,1,0.383,3,3,51,14,1,8,200,right,829,2022-02-16_20h44.04.414,multiplicationStroop,2021.2.3,Win32,59.95203837,,,,,,,,,,,,,,,,,,,,,,,,,,,,,,,,,,,,,,,,,,,,,,,,,,,,,,,,,
,,,,right,1,0.405,3,4,52,9,1,2,200,right,829,2022-02-16_20h44.04.414,multiplicationStroop,2021.2.3,Win32,59.95203837,,,,,,,,,,,,,,,,,,,,,,,,,,,,,,,,,,,,,,,,,,,,,,,,,,,,,,,,,
,,,,left,1,0.398,3,5,53,6,1,8,-200,left,829,2022-02-16_20h44.04.414,multiplicationStroop,2021.2.3,Win32,59.95203837,,,,,,,,,,,,,,,,,,,,,,,,,,,,,,,,,,,,,,,,,,,,,,,,,,,,,,,,,
,,,,left,0,0.384,3,6,54,13,1,7,200,right,829,2022-02-16_20h44.04.414,multiplicationStroop,2021.2.3,Win32,59.95203837,,,,,,,,,,,,,,,,,,,,,,,,,,,,,,,,,,,,,,,,,,,,,,,,,,,,,,,,,
,,,,right,1,0.883,3,7,55,12,1,6,200,right,829,2022-02-16_20h44.04.414,multiplicationStroop,2021.2.3,Win32,59.95203837,,,,,,,,,,,,,,,,,,,,,,,,,,,,,,,,,,,,,,,,,,,,,,,,,,,,,,,,,
,,,,left,1,0.954,3,8,56,0,1,1,-200,left,829,2022-02-16_20h44.04.414,multiplicationStroop,2021.2.3,Win32,59.95203837,,,,,,,,,,,,,,,,,,,,,,,,,,,,,,,,,,,,,,,,,,,,,,,,,,,,,,,,,
,,,,right,1,0.369,3,9,57,8,1,1,200,right,829,2022-02-16_20h44.04.414,multiplicationStroop,2021.2.3,Win32,59.95203837,,,,,,,,,,,,,,,,,,,,,,,,,,,,,,,,,,,,,,,,,,,,,,,,,,,,,,,,,
,,,,left,1,0.366,3,10,58,7,1,9,-200,left,829,2022-02-16_20h44.04.414,multiplicationStroop,2021.2.3,Win32,59.95203837,,,,,,,,,,,,,,,,,,,,,,,,,,,,,,,,,,,,,,,,,,,,,,,,,,,,,,,,,
,,,,left,1,0.384,3,11,59,5,1,7,-200,left,829,2022-02-16_20h44.04.414,multiplicationStroop,2021.2.3,Win32,59.95203837,,,,,,,,,,,,,,,,,,,,,,,,,,,,,,,,,,,,,,,,,,,,,,,,,,,,,,,,,
,,,,left,1,0.367,3,12,60,1,1,2,-200,left,829,2022-02-16_20h44.04.414,multiplicationStroop,2021.2.3,Win32,59.95203837,,,,,,,,,,,,,,,,,,,,,,,,,,,,,,,,,,,,,,,,,,,,,,,,,,,,,,,,,
,,,,right,1,0.369,3,13,61,15,1,9,200,right,829,2022-02-16_20h44.04.414,multiplicationStroop,2021.2.3,Win32,59.95203837,,,,,,,,,,,,,,,,,,,,,,,,,,,,,,,,,,,,,,,,,,,,,,,,,,,,,,,,,
,,,,left,1,0.399,3,14,62,4,1,6,-200,left,829,2022-02-16_20h44.04.414,multiplicationStroop,2021.2.3,Win32,59.95203837,,,,,,,,,,,,,,,,,,,,,,,,,,,,,,,,,,,,,,,,,,,,,,,,,,,,,,,,,
,,,,left,1,0.382,3,15,63,2,1,3,-200,left,829,2022-02-16_20h44.04.414,multiplicationStroop,2021.2.3,Win32,59.95203837,,,,,,,,,,,,,,,,,,,,,,,,,,,,,,,,,,,,,,,,,,,,,,,,,,,,,,,,,
,,,,,,,,,,,,,,,829,2022-02-16_20h44.04.414,multiplicationStroop,2021.2.3,Win32,59.95203837,space,12.21,space,8.169,right,1,0.588,0,0,0,17,1,2,7,2 | 7,5,1.4111,1.9756,congruent,right,,,,,,stimulusFile/magnitude.xlsx,,,,,,,,,,,,,,,,,,,,,,,,,,,,,,,
,,,,,,,,,,,,,,,829,2022-02-16_20h44.04.414,multiplicationStroop,2021.2.3,Win32,59.95203837,,,,,left,1,0.614,0,1,1,7,1,9,8,9 | 8,1,1.9756,1.4111,congruent,left,,,,,,stimulusFile/magnitude.xlsx,,,,,,,,,,,,,,,,,,,,,,,,,,,,,,,
,,,,,,,,,,,,,,,829,2022-02-16_20h44.04.414,multiplicationStroop,2021.2.3,Win32,59.95203837,,,,,right,1,0.581,0,2,2,3,1,8,9,8 | 9,1,1.4111,1.9756,congruent,right,,,,,,stimulusFile/magnitude.xlsx,,,,,,,,,,,,,,,,,,,,,,,,,,,,,,,
,,,,,,,,,,,,,,,829,2022-02-16_20h44.04.414,multiplicationStroop,2021.2.3,Win32,59.95203837,,,,,left,1,0.75,0,3,3,38,1,8,6,8 | 6,2,1.4111,1.9756,incongruent,left,,,,,,stimulusFile/magnitude.xlsx,,,,,,,,,,,,,,,,,,,,,,,,,,,,,,,
,,,,,,,,,,,,,,,829,2022-02-16_20h44.04.414,multiplicationStroop,2021.2.3,Win32,59.95203837,,,,,left,1,0.936,0,4,4,44,1,6,1,6 | 1,5,1.4111,1.9756,incongruent,left,,,,,,stimulusFile/magnitude.xlsx,,,,,,,,,,,,,,,,,,,,,,,,,,,,,,,
,,,,,,,,,,,,,,,829,2022-02-16_20h44.04.414,multiplicationStroop,2021.2.3,Win32,59.95203837,,,,,right,1,0.713,0,5,5,1,1,3,4,3 | 4,1,1.4111,1.9756,congruent,right,,,,,,stimulusFile/magnitude.xlsx,,,,,,,,,,,,,,,,,,,,,,,,,,,,,,,
,,,,,,,,,,,,,,,829,2022-02-16_20h44.04.414,multiplicationStroop,2021.2.3,Win32,59.95203837,,,,,right,1,0.618,0,6,6,43,1,4,9,4 | 9,5,1.9756,1.4111,incongruent,right,,,,,,stimulusFile/magnitude.xlsx,,,,,,,,,,,,,,,,,,,,,,,,,,,,,,,
,,,,,,,,,,,,,,,829,2022-02-16_20h44.04.414,multiplicationStroop,2021.2.3,Win32,59.95203837,,,,,right,1,0.681,0,7,7,40,1,1,6,1 | 6,5,1.9756,1.4111,incongruent,right,,,,,,stimulusFile/magnitude.xlsx,,,,,,,,,,,,,,,,,,,,,,,,,,,,,,,
,,,,,,,,,,,,,,,829,2022-02-16_20h44.04.414,multiplicationStroop,2021.2.3,Win32,59.95203837,,,,,left,1,0.616,0,8,8,4,1,2,1,2 | 1,1,1.9756,1.4111,congruent,left,,,,,,stimulusFile/magnitude.xlsx,,,,,,,,,,,,,,,,,,,,,,,,,,,,,,,
,,,,,,,,,,,,,,,829,2022-02-16_20h44.04.414,multiplicationStroop,2021.2.3,Win32,59.95203837,,,,,left,1,0.614,0,9,9,70,1,8,3,8 | 3,5,1.6933,1.6933,neutral,left,,,,,,stimulusFile/magnitude.xlsx,,,,,,,,,,,,,,,,,,,,,,,,,,,,,,,
,,,,,,,,,,,,,,,829,2022-02-16_20h44.04.414,multiplicationStroop,2021.2.3,Win32,59.95203837,,,,,right,1,0.58,0,10,10,0,1,1,2,1 | 2,1,1.4111,1.9756,congruent,right,,,,,,stimulusFile/magnitude.xlsx,,,,,,,,,,,,,,,,,,,,,,,,,,,,,,,
,,,,,,,,,,,,,,,829,2022-02-16_20h44.04.414,multiplicationStroop,2021.2.3,Win32,59.95203837,,,,,right,1,0.764,0,11,11,59,1,7,9,7 | 9,2,1.6933,1.6933,neutral,right,,,,,,stimulusFile/magnitude.xlsx,,,,,,,,,,,,,,,,,,,,,,,,,,,,,,,
,,,,,,,,,,,,,,,829,2022-02-16_20h44.04.414,multiplicationStroop,2021.2.3,Win32,59.95203837,,,,,left,1,0.83,0,12,12,28,1,2,1,2 | 1,1,1.4111,1.9756,incongruent,left,,,,,,stimulusFile/magnitude.xlsx,,,,,,,,,,,,,,,,,,,,,,,,,,,,,,,
,,,,,,,,,,,,,,,829,2022-02-16_20h44.04.414,multiplicationStroop,2021.2.3,Win32,59.95203837,,,,,right,1,1.421,0,13,13,26,1,6,7,6 | 7,1,1.9756,1.4111,incongruent,right,,,,,,stimulusFile/magnitude.xlsx,,,,,,,,,,,,,,,,,,,,,,,,,,,,,,,
,,,,,,,,,,,,,,,829,2022-02-16_20h44.04.414,multiplicationStroop,2021.2.3,Win32,59.95203837,,,,,right,1,0.981,0,14,14,48,1,1,2,1 | 2,1,1.6933,1.6933,neutral,right,,,,,,stimulusFile/magnitude.xlsx,,,,,,,,,,,,,,,,,,,,,,,,,,,,,,,
,,,,,,,,,,,,,,,829,2022-02-16_20h44.04.414,multiplicationStroop,2021.2.3,Win32,59.95203837,,,,,left,1,1.181,0,15,15,71,1,9,4,9 | 4,5,1.6933,1.6933,neutral,left,,,,,,stimulusFile/magnitude.xlsx,,,,,,,,,,,,,,,,,,,,,,,,,,,,,,,
,,,,,,,,,,,,,,,829,2022-02-16_20h44.04.414,multiplicationStroop,2021.2.3,Win32,59.95203837,,,,,right,1,0.863,0,16,16,41,1,2,7,2 | 7,5,1.9756,1.4111,incongruent,right,,,,,,stimulusFile/magnitude.xlsx,,,,,,,,,,,,,,,,,,,,,,,,,,,,,,,
,,,,,,,,,,,,,,,829,2022-02-16_20h44.04.414,multiplicationStroop,2021.2.3,Win32,59.95203837,,,,,left,1,0.631,0,17,17,20,1,6,1,6 | 1,5,1.9756,1.4111,congruent,left,,,,,,stimulusFile/magnitude.xlsx,,,,,,,,,,,,,,,,,,,,,,,,,,,,,,,
,,,,,,,,,,,,,,,829,2022-02-16_20h44.04.414,multiplicationStroop,2021.2.3,Win32,59.95203837,,,,,right,1,0.851,0,18,18,33,1,2,4,2 | 4,2,1.9756,1.4111,incongruent,right,,,,,,stimulusFile/magnitude.xlsx,,,,,,,,,,,,,,,,,,,,,,,,,,,,,,,
,,,,,,,,,,,,,,,829,2022-02-16_20h44.04.414,multiplicationStroop,2021.2.3,Win32,59.95203837,,,,,right,1,0.531,0,19,19,49,1,3,4,3 | 4,1,1.6933,1.6933,neutral,right,,,,,,stimulusFile/magnitude.xlsx,,,,,,,,,,,,,,,,,,,,,,,,,,,,,,,
,,,,,,,,,,,,,,,829,2022-02-16_20h44.04.414,multiplicationStroop,2021.2.3,Win32,59.95203837,,,,,left,1,0.614,0,20,20,13,1,4,2,4 | 2,2,1.9756,1.4111,congruent,left,,,,,,stimulusFile/magnitude.xlsx,,,,,,,,,,,,,,,,,,,,,,,,,,,,,,,
,,,,,,,,,,,,,,,829,2022-02-16_20h44.04.414,multiplicationStroop,2021.2.3,Win32,59.95203837,,,,,right,1,0.73,0,21,21,27,1,8,9,8 | 9,1,1.9756,1.4111,incongruent,right,,,,,,stimulusFile/magnitude.xlsx,,,,,,,,,,,,,,,,,,,,,,,,,,,,,,,
,,,,,,,,,,,,,,,829,2022-02-16_20h44.04.414,multiplicationStroop,2021.2.3,Win32,59.95203837,,,,,right,1,0.602,0,22,22,57,1,2,4,2 | 4,2,1.6933,1.6933,neutral,right,,,,,,stimulusFile/magnitude.xlsx,,,,,,,,,,,,,,,,,,,,,,,,,,,,,,,
,,,,,,,,,,,,,,,829,2022-02-16_20h44.04.414,multiplicationStroop,2021.2.3,Win32,59.95203837,,,,,right,1,0.567,0,23,23,32,1,1,3,1 | 3,2,1.9756,1.4111,incongruent,right,,,,,,stimulusFile/magnitude.xlsx,,,,,,,,,,,,,,,,,,,,,,,,,,,,,,,
,,,,,,,,,,,,,,,829,2022-02-16_20h44.04.414,multiplicationStroop,2021.2.3,Win32,59.95203837,,,,,right,1,0.682,0,24,24,42,1,3,8,3 | 8,5,1.9756,1.4111,incongruent,right,,,,,,stimulusFile/magnitude.xlsx,,,,,,,,,,,,,,,,,,,,,,,,,,,,,,,
,,,,,,,,,,,,,,,829,2022-02-16_20h44.04.414,multiplicationStroop,2021.2.3,Win32,59.95203837,,,,,left,1,0.755,0,25,25,31,1,9,8,9 | 8,1,1.4111,1.9756,incongruent,left,,,,,,stimulusFile/magnitude.xlsx,,,,,,,,,,,,,,,,,,,,,,,,,,,,,,,
,,,,,,,,,,,,,,,829,2022-02-16_20h44.04.414,multiplicationStroop,2021.2.3,Win32,59.95203837,,,,,right,1,0.61,0,26,26,35,1,7,9,7 | 9,2,1.9756,1.4111,incongruent,right,,,,,,stimulusFile/magnitude.xlsx,,,,,,,,,,,,,,,,,,,,,,,,,,,,,,,
,,,,,,,,,,,,,,,829,2022-02-16_20h44.04.414,multiplicationStroop,2021.2.3,Win32,59.95203837,,,,,left,1,0.615,0,27,27,47,1,9,4,9 | 4,5,1.4111,1.9756,incongruent,left,,,,,,stimulusFile/magnitude.xlsx,,,,,,,,,,,,,,,,,,,,,,,,,,,,,,,
,,,,,,,,,,,,,,,829,2022-02-16_20h44.04.414,multiplicationStroop,2021.2.3,Win32,59.95203837,,,,,left,1,1.149,0,28,28,36,1,3,1,3 | 1,2,1.4111,1.9756,incongruent,left,,,,,,stimulusFile/magnitude.xlsx,,,,,,,,,,,,,,,,,,,,,,,,,,,,,,,
,,,,,,,,,,,,,,,829,2022-02-16_20h44.04.414,multiplicationStroop,2021.2.3,Win32,59.95203837,,,,,left,1,0.637,0,29,29,52,1,2,1,2 | 1,1,1.6933,1.6933,neutral,left,,,,,,stimulusFile/magnitude.xlsx,,,,,,,,,,,,,,,,,,,,,,,,,,,,,,,
,,,,,,,,,,,,,,,829,2022-02-16_20h44.04.414,multiplicationStroop,2021.2.3,Win32,59.95203837,,,,,right,1,0.65,0,30,30,34,1,6,8,6 | 8,2,1.9756,1.4111,incongruent,right,,,,,,stimulusFile/magnitude.xlsx,,,,,,,,,,,,,,,,,,,,,,,,,,,,,,,
,,,,,,,,,,,,,,,829,2022-02-16_20h44.04.414,multiplicationStroop,2021.2.3,Win32,59.95203837,,,,,left,1,0.696,0,31,31,29,1,4,3,4 | 3,1,1.4111,1.9756,incongruent,left,,,,,,stimulusFile/magnitude.xlsx,,,,,,,,,,,,,,,,,,,,,,,,,,,,,,,
,,,,,,,,,,,,,,,829,2022-02-16_20h44.04.414,multiplicationStroop,2021.2.3,Win32,59.95203837,,,,,left,1,0.797,0,32,32,63,1,9,7,9 | 7,2,1.6933,1.6933,neutral,left,,,,,,stimulusFile/magnitude.xlsx,,,,,,,,,,,,,,,,,,,,,,,,,,,,,,,
,,,,,,,,,,,,,,,829,2022-02-16_20h44.04.414,multiplicationStroop,2021.2.3,Win32,59.95203837,,,,,right,1,0.602,0,33,33,67,1,4,9,4 | 9,5,1.6933,1.6933,neutral,right,,,,,,stimulusFile/magnitude.xlsx,,,,,,,,,,,,,,,,,,,,,,,,,,,,,,,
,,,,,,,,,,,,,,,829,2022-02-16_20h44.04.414,multiplicationStroop,2021.2.3,Win32,59.95203837,,,,,right,1,0.58,0,34,34,18,1,3,8,3 | 8,5,1.4111,1.9756,congruent,right,,,,,,stimulusFile/magnitude.xlsx,,,,,,,,,,,,,,,,,,,,,,,,,,,,,,,
,,,,,,,,,,,,,,,829,2022-02-16_20h44.04.414,multiplicationStroop,2021.2.3,Win32,59.95203837,,,,,left,1,0.93,0,35,35,69,1,7,2,7 | 2,5,1.6933,1.6933,neutral,left,,,,,,stimulusFile/magnitude.xlsx,,,,,,,,,,,,,,,,,,,,,,,,,,,,,,,
,,,,,,,,,,,,,,,829,2022-02-16_20h44.04.414,multiplicationStroop,2021.2.3,Win32,59.95203837,,,,,right,1,0.869,0,36,36,66,1,3,8,3 | 8,5,1.6933,1.6933,neutral,right,,,,,,stimulusFile/magnitude.xlsx,,,,,,,,,,,,,,,,,,,,,,,,,,,,,,,
,,,,,,,,,,,,,,,829,2022-02-16_20h44.04.414,multiplicationStroop,2021.2.3,Win32,59.95203837,,,,,left,1,0.667,0,37,37,12,1,3,1,3 | 1,2,1.9756,1.4111,congruent,left,,,,,,stimulusFile/magnitude.xlsx,,,,,,,,,,,,,,,,,,,,,,,,,,,,,,,
,,,,,,,,,,,,,,,829,2022-02-16_20h44.04.414,multiplicationStroop,2021.2.3,Win32,59.95203837,,,,,left,1,0.797,0,38,38,62,1,8,6,8 | 6,2,1.6933,1.6933,neutral,left,,,,,,stimulusFile/magnitude.xlsx,,,,,,,,,,,,,,,,,,,,,,,,,,,,,,,
,,,,,,,,,,,,,,,829,2022-02-16_20h44.04.414,multiplicationStroop,2021.2.3,Win32,59.95203837,,,,,right,1,0.548,0,39,39,9,1,2,4,2 | 4,2,1.4111,1.9756,congruent,right,,,,,,stimulusFile/magnitude.xlsx,,,,,,,,,,,,,,,,,,,,,,,,,,,,,,,
,,,,,,,,,,,,,,,829,2022-02-16_20h44.04.414,multiplicationStroop,2021.2.3,Win32,59.95203837,,,,,left,1,0.597,0,40,40,6,1,7,6,7 | 6,1,1.9756,1.4111,congruent,left,,,,,,stimulusFile/magnitude.xlsx,,,,,,,,,,,,,,,,,,,,,,,,,,,,,,,
,,,,,,,,,,,,,,,829,2022-02-16_20h44.04.414,multiplicationStroop,2021.2.3,Win32,59.95203837,,,,,right,0,0.619,0,41,41,54,1,7,6,7 | 6,1,1.6933,1.6933,neutral,left,,,,,,stimulusFile/magnitude.xlsx,,,,,,,,,,,,,,,,,,,,,,,,,,,,,,,
,,,,,,,,,,,,,,,829,2022-02-16_20h44.04.414,multiplicationStroop,2021.2.3,Win32,59.95203837,,,,,left,1,1.182,0,42,42,61,1,4,2,4 | 2,2,1.6933,1.6933,neutral,left,,,,,,stimulusFile/magnitude.xlsx,,,,,,,,,,,,,,,,,,,,,,,,,,,,,,,
,,,,,,,,,,,,,,,829,2022-02-16_20h44.04.414,multiplicationStroop,2021.2.3,Win32,59.95203837,,,,,left,1,0.815,0,43,43,5,1,4,3,4 | 3,1,1.9756,1.4111,congruent,left,,,,,,stimulusFile/magnitude.xlsx,,,,,,,,,,,,,,,,,,,,,,,,,,,,,,,
,,,,,,,,,,,,,,,829,2022-02-16_20h44.04.414,multiplicationStroop,2021.2.3,Win32,59.95203837,,,,,right,1,0.581,0,44,44,24,1,1,2,1 | 2,1,1.9756,1.4111,incongruent,right,,,,,,stimulusFile/magnitude.xlsx,,,,,,,,,,,,,,,,,,,,,,,,,,,,,,,
,,,,,,,,,,,,,,,829,2022-02-16_20h44.04.414,multiplicationStroop,2021.2.3,Win32,59.95203837,,,,,left,1,0.582,0,45,45,60,1,3,1,3 | 1,2,1.6933,1.6933,neutral,left,,,,,,stimulusFile/magnitude.xlsx,,,,,,,,,,,,,,,,,,,,,,,,,,,,,,,
,,,,,,,,,,,,,,,829,2022-02-16_20h44.04.414,multiplicationStroop,2021.2.3,Win32,59.95203837,,,,,right,1,0.632,0,46,46,25,1,3,4,3 | 4,1,1.9756,1.4111,incongruent,right,,,,,,stimulusFile/magnitude.xlsx,,,,,,,,,,,,,,,,,,,,,,,,,,,,,,,
,,,,,,,,,,,,,,,829,2022-02-16_20h44.04.414,multiplicationStroop,2021.2.3,Win32,59.95203837,,,,,left,1,0.547,0,47,47,37,1,4,2,4 | 2,2,1.4111,1.9756,incongruent,left,,,,,,stimulusFile/magnitude.xlsx,,,,,,,,,,,,,,,,,,,,,,,,,,,,,,,
,,,,,,,,,,,,,,,829,2022-02-16_20h44.04.414,multiplicationStroop,2021.2.3,Win32,59.95203837,,,,,right,1,0.584,0,48,48,8,1,1,3,1 | 3,2,1.4111,1.9756,congruent,right,,,,,,stimulusFile/magnitude.xlsx,,,,,,,,,,,,,,,,,,,,,,,,,,,,,,,
,,,,,,,,,,,,,,,829,2022-02-16_20h44.04.414,multiplicationStroop,2021.2.3,Win32,59.95203837,,,,,right,1,0.58,0,49,49,65,1,2,7,2 | 7,5,1.6933,1.6933,neutral,right,,,,,,stimulusFile/magnitude.xlsx,,,,,,,,,,,,,,,,,,,,,,,,,,,,,,,
,,,,,,,,,,,,,,,829,2022-02-16_20h44.04.414,multiplicationStroop,2021.2.3,Win32,59.95203837,,,,,left,1,0.547,0,50,50,45,1,7,2,7 | 2,5,1.4111,1.9756,incongruent,left,,,,,,stimulusFile/magnitude.xlsx,,,,,,,,,,,,,,,,,,,,,,,,,,,,,,,
,,,,,,,,,,,,,,,829,2022-02-16_20h44.04.414,multiplicationStroop,2021.2.3,Win32,59.95203837,,,,,left,1,0.522,0,51,51,68,1,6,1,6 | 1,5,1.6933,1.6933,neutral,left,,,,,,stimulusFile/magnitude.xlsx,,,,,,,,,,,,,,,,,,,,,,,,,,,,,,,
,,,,,,,,,,,,,,,829,2022-02-16_20h44.04.414,multiplicationStroop,2021.2.3,Win32,59.95203837,,,,,right,1,0.615,0,52,52,2,1,6,7,6 | 7,1,1.4111,1.9756,congruent,right,,,,,,stimulusFile/magnitude.xlsx,,,,,,,,,,,,,,,,,,,,,,,,,,,,,,,
,,,,,,,,,,,,,,,829,2022-02-16_20h44.04.414,multiplicationStroop,2021.2.3,Win32,59.95203837,,,,,right,1,0.915,0,53,53,56,1,1,3,1 | 3,2,1.6933,1.6933,neutral,right,,,,,,stimulusFile/magnitude.xlsx,,,,,,,,,,,,,,,,,,,,,,,,,,,,,,,
,,,,,,,,,,,,,,,829,2022-02-16_20h44.04.414,multiplicationStroop,2021.2.3,Win32,59.95203837,,,,,left,1,0.767,0,54,54,30,1,7,6,7 | 6,1,1.4111,1.9756,incongruent,left,,,,,,stimulusFile/magnitude.xlsx,,,,,,,,,,,,,,,,,,,,,,,,,,,,,,,
,,,,,,,,,,,,,,,829,2022-02-16_20h44.04.414,multiplicationStroop,2021.2.3,Win32,59.95203837,,,,,right,1,0.548,0,55,55,10,1,6,8,6 | 8,2,1.4111,1.9756,congruent,right,,,,,,stimulusFile/magnitude.xlsx,,,,,,,,,,,,,,,,,,,,,,,,,,,,,,,
,,,,,,,,,,,,,,,829,2022-02-16_20h44.04.414,multiplicationStroop,2021.2.3,Win32,59.95203837,,,,,right,1,0.749,0,56,56,50,1,6,7,6 | 7,1,1.6933,1.6933,neutral,right,,,,,,stimulusFile/magnitude.xlsx,,,,,,,,,,,,,,,,,,,,,,,,,,,,,,,
,,,,,,,,,,,,,,,829,2022-02-16_20h44.04.414,multiplicationStroop,2021.2.3,Win32,59.95203837,,,,,left,1,0.581,0,57,57,14,1,8,6,8 | 6,2,1.9756,1.4111,congruent,left,,,,,,stimulusFile/magnitude.xlsx,,,,,,,,,,,,,,,,,,,,,,,,,,,,,,,
,,,,,,,,,,,,,,,829,2022-02-16_20h44.04.414,multiplicationStroop,2021.2.3,Win32,59.95203837,,,,,left,1,0.549,0,58,58,22,1,8,3,8 | 3,5,1.9756,1.4111,congruent,left,,,,,,stimulusFile/magnitude.xlsx,,,,,,,,,,,,,,,,,,,,,,,,,,,,,,,
,,,,,,,,,,,,,,,829,2022-02-16_20h44.04.414,multiplicationStroop,2021.2.3,Win32,59.95203837,,,,,right,0,0.583,0,59,59,39,1,9,7,9 | 7,2,1.4111,1.9756,incongruent,left,,,,,,stimulusFile/magnitude.xlsx,,,,,,,,,,,,,,,,,,,,,,,,,,,,,,,
,,,,,,,,,,,,,,,829,2022-02-16_20h44.04.414,multiplicationStroop,2021.2.3,Win32,59.95203837,,,,,left,0,1.047,0,60,60,11,1,7,9,7 | 9,2,1.4111,1.9756,congruent,right,,,,,,stimulusFile/magnitude.xlsx,,,,,,,,,,,,,,,,,,,,,,,,,,,,,,,
,,,,,,,,,,,,,,,829,2022-02-16_20h44.04.414,multiplicationStroop,2021.2.3,Win32,59.95203837,,,,,left,1,1.719,0,61,61,53,1,4,3,4 | 3,1,1.6933,1.6933,neutral,left,,,,,,stimulusFile/magnitude.xlsx,,,,,,,,,,,,,,,,,,,,,,,,,,,,,,,
,,,,,,,,,,,,,,,829,2022-02-16_20h44.04.414,multiplicationStroop,2021.2.3,Win32,59.95203837,,,,,right,1,0.547,0,62,62,19,1,4,9,4 | 9,5,1.4111,1.9756,congruent,right,,,,,,stimulusFile/magnitude.xlsx,,,,,,,,,,,,,,,,,,,,,,,,,,,,,,,
,,,,,,,,,,,,,,,829,2022-02-16_20h44.04.414,multiplicationStroop,2021.2.3,Win32,59.95203837,,,,,left,1,0.686,0,63,63,23,1,9,4,9 | 4,5,1.9756,1.4111,congruent,left,,,,,,stimulusFile/magnitude.xlsx,,,,,,,,,,,,,,,,,,,,,,,,,,,,,,,
,,,,,,,,,,,,,,,829,2022-02-16_20h44.04.414,multiplicationStroop,2021.2.3,Win32,59.95203837,,,,,left,1,0.581,0,64,64,21,1,7,2,7 | 2,5,1.9756,1.4111,congruent,left,,,,,,stimulusFile/magnitude.xlsx,,,,,,,,,,,,,,,,,,,,,,,,,,,,,,,
,,,,,,,,,,,,,,,829,2022-02-16_20h44.04.414,multiplicationStroop,2021.2.3,Win32,59.95203837,,,,,right,1,0.532,0,65,65,16,1,1,6,1 | 6,5,1.4111,1.9756,congruent,right,,,,,,stimulusFile/magnitude.xlsx,,,,,,,,,,,,,,,,,,,,,,,,,,,,,,,
,,,,,,,,,,,,,,,829,2022-02-16_20h44.04.414,multiplicationStroop,2021.2.3,Win32,59.95203837,,,,,left,1,0.767,0,66,66,55,1,9,8,9 | 8,1,1.6933,1.6933,neutral,left,,,,,,stimulusFile/magnitude.xlsx,,,,,,,,,,,,,,,,,,,,,,,,,,,,,,,
,,,,,,,,,,,,,,,829,2022-02-16_20h44.04.414,multiplicationStroop,2021.2.3,Win32,59.95203837,,,,,right,1,0.514,0,67,67,64,1,1,6,1 | 6,5,1.6933,1.6933,neutral,right,,,,,,stimulusFile/magnitude.xlsx,,,,,,,,,,,,,,,,,,,,,,,,,,,,,,,
,,,,,,,,,,,,,,,829,2022-02-16_20h44.04.414,multiplicationStroop,2021.2.3,Win32,59.95203837,,,,,right,1,0.798,0,68,68,51,1,8,9,8 | 9,1,1.6933,1.6933,neutral,right,,,,,,stimulusFile/magnitude.xlsx,,,,,,,,,,,,,,,,,,,,,,,,,,,,,,,
,,,,,,,,,,,,,,,829,2022-02-16_20h44.04.414,multiplicationStroop,2021.2.3,Win32,59.95203837,,,,,left,1,1.086,0,69,69,46,1,8,3,8 | 3,5,1.4111,1.9756,incongruent,left,,,,,,stimulusFile/magnitude.xlsx,,,,,,,,,,,,,,,,,,,,,,,,,,,,,,,
,,,,,,,,,,,,,,,829,2022-02-16_20h44.04.414,multiplicationStroop,2021.2.3,Win32,59.95203837,,,,,left,1,0.751,0,70,70,15,1,9,7,9 | 7,2,1.9756,1.4111,congruent,left,,,,,,stimulusFile/magnitude.xlsx,,,,,,,,,,,,,,,,,,,,,,,,,,,,,,,
,,,,,,,,,,,,,,,829,2022-02-16_20h44.04.414,multiplicationStroop,2021.2.3,Win32,59.95203837,,,,,right,1,0.736,0,71,71,58,1,6,8,6 | 8,2,1.6933,1.6933,neutral,right,,,,,,stimulusFile/magnitude.xlsx,,,,,,,,,,,,,,,,,,,,,,,,,,,,,,,
,,,,,,,,,,,,,,,829,2022-02-16_20h44.04.414,multiplicationStroop,2021.2.3,Win32,59.95203837,,,,,,,,,,,,,,,,,,,,,0,0,0,0,1,stimulusFile/magnitude.xlsx,NUMERICALLY larger (larger coefficient).,images/numericallyLarger.png,,,,,,,,,,,,,,,,,,,,,,,,,,,,,
,,,,,,,,,,,,,,,829,2022-02-16_20h44.04.414,multiplicationStroop,2021.2.3,Win32,59.95203837,space,6.324,space,3.567,right,1,0.601,0,0,0,61,1,4,4,4 | 4,0,1.4111,1.9756,neutral,right,,,,,,stimulusFile/physical.xlsx,,,,,,,,,,,,,,,,,,,,,,,,,,,,,,,
,,,,,,,,,,,,,,,829,2022-02-16_20h44.04.414,multiplicationStroop,2021.2.3,Win32,59.95203837,,,,,left,1,0.53,0,1,1,14,1,8,6,8 | 6,2,1.9756,1.4111,congruent,left,,,,,,stimulusFile/physical.xlsx,,,,,,,,,,,,,,,,,,,,,,,,,,,,,,,
,,,,,,,,,,,,,,,829,2022-02-16_20h44.04.414,multiplicationStroop,2021.2.3,Win32,59.95203837,,,,,left,1,0.555,0,2,2,51,1,8,8,8 | 8,0,1.9756,1.4111,neutral,left,,,,,,stimulusFile/physical.xlsx,,,,,,,,,,,,,,,,,,,,,,,,,,,,,,,
,,,,,,,,,,,,,,,829,2022-02-16_20h44.04.414,multiplicationStroop,2021.2.3,Win32,59.95203837,,,,,left,1,0.581,0,3,3,26,1,6,7,6 | 7,1,1.9756,1.4111,incongruent,left,,,,,,stimulusFile/physical.xlsx,,,,,,,,,,,,,,,,,,,,,,,,,,,,,,,
,,,,,,,,,,,,,,,829,2022-02-16_20h44.04.414,multiplicationStroop,2021.2.3,Win32,59.95203837,,,,,left,0,0.481,0,4,4,66,1,3,3,3 | 3,0,1.9756,1.4111,neutral,right,,,,,,stimulusFile/physical.xlsx,,,,,,,,,,,,,,,,,,,,,,,,,,,,,,,
,,,,,,,,,,,,,,,829,2022-02-16_20h44.04.414,multiplicationStroop,2021.2.3,Win32,59.95203837,,,,,left,1,0.716,0,5,5,53,1,4,4,4 | 4,0,1.9756,1.4111,neutral,left,,,,,,stimulusFile/physical.xlsx,,,,,,,,,,,,,,,,,,,,,,,,,,,,,,,
,,,,,,,,,,,,,,,829,2022-02-16_20h44.04.414,multiplicationStroop,2021.2.3,Win32,59.95203837,,,,,right,1,0.48,0,6,6,17,1,2,7,2 | 7,5,1.4111,1.9756,congruent,right,,,,,,stimulusFile/physical.xlsx,,,,,,,,,,,,,,,,,,,,,,,,,,,,,,,
,,,,,,,,,,,,,,,829,2022-02-16_20h44.04.414,multiplicationStroop,2021.2.3,Win32,59.95203837,,,,,left,1,0.598,0,7,7,5,1,4,3,4 | 3,1,1.9756,1.4111,congruent,left,,,,,,stimulusFile/physical.xlsx,,,,,,,,,,,,,,,,,,,,,,,,,,,,,,,
,,,,,,,,,,,,,,,829,2022-02-16_20h44.04.414,multiplicationStroop,2021.2.3,Win32,59.95203837,,,,,left,1,0.632,0,8,8,25,1,3,4,3 | 4,1,1.9756,1.4111,incongruent,left,,,,,,stimulusFile/physical.xlsx,,,,,,,,,,,,,,,,,,,,,,,,,,,,,,,
,,,,,,,,,,,,,,,829,2022-02-16_20h44.04.414,multiplicationStroop,2021.2.3,Win32,59.95203837,,,,,left,1,0.561,0,9,9,50,1,6,6,6 | 6,0,1.9756,1.4111,neutral,left,,,,,,stimulusFile/physical.xlsx,,,,,,,,,,,,,,,,,,,,,,,,,,,,,,,
,,,,,,,,,,,,,,,829,2022-02-16_20h44.04.414,multiplicationStroop,2021.2.3,Win32,59.95203837,,,,,right,1,0.516,0,10,10,57,1,2,2,2 | 2,0,1.4111,1.9756,neutral,right,,,,,,stimulusFile/physical.xlsx,,,,,,,,,,,,,,,,,,,,,,,,,,,,,,,
,,,,,,,,,,,,,,,829,2022-02-16_20h44.04.414,multiplicationStroop,2021.2.3,Win32,59.95203837,,,,,left,1,0.685,0,11,11,52,1,2,2,2 | 2,0,1.9756,1.4111,neutral,left,,,,,,stimulusFile/physical.xlsx,,,,,,,,,,,,,,,,,,,,,,,,,,,,,,,
,,,,,,,,,,,,,,,829,2022-02-16_20h44.04.414,multiplicationStroop,2021.2.3,Win32,59.95203837,,,,,left,1,0.647,0,12,12,32,1,1,3,1 | 3,2,1.9756,1.4111,incongruent,left,,,,,,stimulusFile/physical.xlsx,,,,,,,,,,,,,,,,,,,,,,,,,,,,,,,
,,,,,,,,,,,,,,,829,2022-02-16_20h44.04.414,multiplicationStroop,2021.2.3,Win32,59.95203837,,,,,left,1,0.702,0,13,13,13,1,4,2,4 | 2,2,1.9756,1.4111,congruent,left,,,,,,stimulusFile/physical.xlsx,,,,,,,,,,,,,,,,,,,,,,,,,,,,,,,
,,,,,,,,,,,,,,,829,2022-02-16_20h44.04.414,multiplicationStroop,2021.2.3,Win32,59.95203837,,,,,right,1,0.544,0,14,14,63,1,9,9,9 | 9,0,1.4111,1.9756,neutral,right,,,,,,stimulusFile/physical.xlsx,,,,,,,,,,,,,,,,,,,,,,,,,,,,,,,
,,,,,,,,,,,,,,,829,2022-02-16_20h44.04.414,multiplicationStroop,2021.2.3,Win32,59.95203837,,,,,right,1,0.582,0,15,15,67,1,4,4,4 | 4,0,1.4111,1.9756,neutral,right,,,,,,stimulusFile/physical.xlsx,,,,,,,,,,,,,,,,,,,,,,,,,,,,,,,
,,,,,,,,,,,,,,,829,2022-02-16_20h44.04.414,multiplicationStroop,2021.2.3,Win32,59.95203837,,,,,right,1,0.533,0,16,16,8,1,1,3,1 | 3,2,1.4111,1.9756,congruent,right,,,,,,stimulusFile/physical.xlsx,,,,,,,,,,,,,,,,,,,,,,,,,,,,,,,
,,,,,,,,,,,,,,,829,2022-02-16_20h44.04.414,multiplicationStroop,2021.2.3,Win32,59.95203837,,,,,right,1,0.489,0,17,17,16,1,1,6,1 | 6,5,1.4111,1.9756,congruent,right,,,,,,stimulusFile/physical.xlsx,,,,,,,,,,,,,,,,,,,,,,,,,,,,,,,
,,,,,,,,,,,,,,,829,2022-02-16_20h44.04.414,multiplicationStroop,2021.2.3,Win32,59.95203837,,,,,right,1,0.584,0,18,18,9,1,2,4,2 | 4,2,1.4111,1.9756,congruent,right,,,,,,stimulusFile/physical.xlsx,,,,,,,,,,,,,,,,,,,,,,,,,,,,,,,
,,,,,,,,,,,,,,,829,2022-02-16_20h44.04.414,multiplicationStroop,2021.2.3,Win32,59.95203837,,,,,left,1,0.479,0,19,19,22,1,8,3,8 | 3,5,1.9756,1.4111,congruent,left,,,,,,stimulusFile/physical.xlsx,,,,,,,,,,,,,,,,,,,,,,,,,,,,,,,
,,,,,,,,,,,,,,,829,2022-02-16_20h44.04.414,multiplicationStroop,2021.2.3,Win32,59.95203837,,,,,right,1,0.67,0,20,20,37,1,4,2,4 | 2,2,1.4111,1.9756,incongruent,right,,,,,,stimulusFile/physical.xlsx,,,,,,,,,,,,,,,,,,,,,,,,,,,,,,,
,,,,,,,,,,,,,,,829,2022-02-16_20h44.04.414,multiplicationStroop,2021.2.3,Win32,59.95203837,,,,,left,1,0.48,0,21,21,49,1,3,3,3 | 3,0,1.9756,1.4111,neutral,left,,,,,,stimulusFile/physical.xlsx,,,,,,,,,,,,,,,,,,,,,,,,,,,,,,,
,,,,,,,,,,,,,,,829,2022-02-16_20h44.04.414,multiplicationStroop,2021.2.3,Win32,59.95203837,,,,,right,1,0.521,0,22,22,62,1,8,8,8 | 8,0,1.4111,1.9756,neutral,right,,,,,,stimulusFile/physical.xlsx,,,,,,,,,,,,,,,,,,,,,,,,,,,,,,,
,,,,,,,,,,,,,,,829,2022-02-16_20h44.04.414,multiplicationStroop,2021.2.3,Win32,59.95203837,,,,,right,0,0.532,0,23,23,69,1,7,7,7 | 7,0,1.4111,1.9756,neutral,left,,,,,,stimulusFile/physical.xlsx,,,,,,,,,,,,,,,,,,,,,,,,,,,,,,,
,,,,,,,,,,,,,,,829,2022-02-16_20h44.04.414,multiplicationStroop,2021.2.3,Win32,59.95203837,,,,,left,1,0.547,0,24,24,21,1,7,2,7 | 2,5,1.9756,1.4111,congruent,left,,,,,,stimulusFile/physical.xlsx,,,,,,,,,,,,,,,,,,,,,,,,,,,,,,,
,,,,,,,,,,,,,,,829,2022-02-16_20h44.04.414,multiplicationStroop,2021.2.3,Win32,59.95203837,,,,,left,1,0.604,0,25,25,24,1,1,2,1 | 2,1,1.9756,1.4111,incongruent,left,,,,,,stimulusFile/physical.xlsx,,,,,,,,,,,,,,,,,,,,,,,,,,,,,,,
,,,,,,,,,,,,,,,829,2022-02-16_20h44.04.414,multiplicationStroop,2021.2.3,Win32,59.95203837,,,,,left,1,0.549,0,26,26,7,1,9,8,9 | 8,1,1.9756,1.4111,congruent,left,,,,,,stimulusFile/physical.xlsx,,,,,,,,,,,,,,,,,,,,,,,,,,,,,,,
,,,,,,,,,,,,,,,829,2022-02-16_20h44.04.414,multiplicationStroop,2021.2.3,Win32,59.95203837,,,,,left,1,0.597,0,27,27,48,1,1,1,1 | 1,0,1.9756,1.4111,neutral,left,,,,,,stimulusFile/physical.xlsx,,,,,,,,,,,,,,,,,,,,,,,,,,,,,,,
,,,,,,,,,,,,,,,829,2022-02-16_20h44.04.414,multiplicationStroop,2021.2.3,Win32,59.95203837,,,,,left,1,0.549,0,28,28,6,1,7,6,7 | 6,1,1.9756,1.4111,congruent,left,,,,,,stimulusFile/physical.xlsx,,,,,,,,,,,,,,,,,,,,,,,,,,,,,,,
,,,,,,,,,,,,,,,829,2022-02-16_20h44.04.414,multiplicationStroop,2021.2.3,Win32,59.95203837,,,,,right,1,0.552,0,29,29,19,1,4,9,4 | 9,5,1.4111,1.9756,congruent,right,,,,,,stimulusFile/physical.xlsx,,,,,,,,,,,,,,,,,,,,,,,,,,,,,,,
,,,,,,,,,,,,,,,829,2022-02-16_20h44.04.414,multiplicationStroop,2021.2.3,Win32,59.95203837,,,,,right,1,0.515,0,30,30,1,1,3,4,3 | 4,1,1.4111,1.9756,congruent,right,,,,,,stimulusFile/physical.xlsx,,,,,,,,,,,,,,,,,,,,,,,,,,,,,,,
,,,,,,,,,,,,,,,829,2022-02-16_20h44.04.414,multiplicationStroop,2021.2.3,Win32,59.95203837,,,,,left,1,0.495,0,31,31,4,1,2,1,2 | 1,1,1.9756,1.4111,congruent,left,,,,,,stimulusFile/physical.xlsx,,,,,,,,,,,,,,,,,,,,,,,,,,,,,,,
,,,,,,,,,,,,,,,829,2022-02-16_20h44.04.414,multiplicationStroop,2021.2.3,Win32,59.95203837,,,,,left,1,0.771,0,32,32,40,1,1,6,1 | 6,5,1.9756,1.4111,incongruent,left,,,,,,stimulusFile/physical.xlsx,,,,,,,,,,,,,,,,,,,,,,,,,,,,,,,
,,,,,,,,,,,,,,,829,2022-02-16_20h44.04.414,multiplicationStroop,2021.2.3,Win32,59.95203837,,,,,left,1,0.698,0,33,33,23,1,9,4,9 | 4,5,1.9756,1.4111,congruent,left,,,,,,stimulusFile/physical.xlsx,,,,,,,,,,,,,,,,,,,,,,,,,,,,,,,
,,,,,,,,,,,,,,,829,2022-02-16_20h44.04.414,multiplicationStroop,2021.2.3,Win32,59.95203837,,,,,right,1,0.554,0,34,34,65,1,2,2,2 | 2,0,1.4111,1.9756,neutral,right,,,,,,stimulusFile/physical.xlsx,,,,,,,,,,,,,,,,,,,,,,,,,,,,,,,
,,,,,,,,,,,,,,,829,2022-02-16_20h44.04.414,multiplicationStroop,2021.2.3,Win32,59.95203837,,,,,right,1,0.584,0,35,35,56,1,1,1,1 | 1,0,1.4111,1.9756,neutral,right,,,,,,stimulusFile/physical.xlsx,,,,,,,,,,,,,,,,,,,,,,,,,,,,,,,
,,,,,,,,,,,,,,,829,2022-02-16_20h44.04.414,multiplicationStroop,2021.2.3,Win32,59.95203837,,,,,right,1,0.55,0,36,36,58,1,6,6,6 | 6,0,1.4111,1.9756,neutral,right,,,,,,stimulusFile/physical.xlsx,,,,,,,,,,,,,,,,,,,,,,,,,,,,,,,
,,,,,,,,,,,,,,,829,2022-02-16_20h44.04.414,multiplicationStroop,2021.2.3,Win32,59.95203837,,,,,left,1,0.53,0,37,37,12,1,3,1,3 | 1,2,1.9756,1.4111,congruent,left,,,,,,stimulusFile/physical.xlsx,,,,,,,,,,,,,,,,,,,,,,,,,,,,,,,
,,,,,,,,,,,,,,,829,2022-02-16_20h44.04.414,multiplicationStroop,2021.2.3,Win32,59.95203837,,,,,right,1,0.617,0,38,38,31,1,9,8,9 | 8,1,1.4111,1.9756,incongruent,right,,,,,,stimulusFile/physical.xlsx,,,,,,,,,,,,,,,,,,,,,,,,,,,,,,,
,,,,,,,,,,,,,,,829,2022-02-16_20h44.04.414,multiplicationStroop,2021.2.3,Win32,59.95203837,,,,,left,1,0.484,0,39,39,68,1,6,6,6 | 6,0,1.9756,1.4111,neutral,left,,,,,,stimulusFile/physical.xlsx,,,,,,,,,,,,,,,,,,,,,,,,,,,,,,,
,,,,,,,,,,,,,,,829,2022-02-16_20h44.04.414,multiplicationStroop,2021.2.3,Win32,59.95203837,,,,,right,0,0.483,0,40,40,71,1,9,9,9 | 9,0,1.4111,1.9756,neutral,left,,,,,,stimulusFile/physical.xlsx,,,,,,,,,,,,,,,,,,,,,,,,,,,,,,,
,,,,,,,,,,,,,,,829,2022-02-16_20h44.04.414,multiplicationStroop,2021.2.3,Win32,59.95203837,,,,,right,1,0.597,0,41,41,38,1,8,6,8 | 6,2,1.4111,1.9756,incongruent,right,,,,,,stimulusFile/physical.xlsx,,,,,,,,,,,,,,,,,,,,,,,,,,,,,,,
,,,,,,,,,,,,,,,829,2022-02-16_20h44.04.414,multiplicationStroop,2021.2.3,Win32,59.95203837,,,,,left,1,0.515,0,42,42,34,1,6,8,6 | 8,2,1.9756,1.4111,incongruent,left,,,,,,stimulusFile/physical.xlsx,,,,,,,,,,,,,,,,,,,,,,,,,,,,,,,
,,,,,,,,,,,,,,,829,2022-02-16_20h44.04.414,multiplicationStroop,2021.2.3,Win32,59.95203837,,,,,right,1,0.564,0,43,43,36,1,3,1,3 | 1,2,1.4111,1.9756,incongruent,right,,,,,,stimulusFile/physical.xlsx,,,,,,,,,,,,,,,,,,,,,,,,,,,,,,,
,,,,,,,,,,,,,,,829,2022-02-16_20h44.04.414,multiplicationStroop,2021.2.3,Win32,59.95203837,,,,,left,1,0.514,0,44,44,55,1,9,9,9 | 9,0,1.9756,1.4111,neutral,left,,,,,,stimulusFile/physical.xlsx,,,,,,,,,,,,,,,,,,,,,,,,,,,,,,,
,,,,,,,,,,,,,,,829,2022-02-16_20h44.04.414,multiplicationStroop,2021.2.3,Win32,59.95203837,,,,,left,1,0.538,0,45,45,33,1,2,4,2 | 4,2,1.9756,1.4111,incongruent,left,,,,,,stimulusFile/physical.xlsx,,,,,,,,,,,,,,,,,,,,,,,,,,,,,,,
,,,,,,,,,,,,,,,829,2022-02-16_20h44.04.414,multiplicationStroop,2021.2.3,Win32,59.95203837,,,,,left,1,0.531,0,46,46,20,1,6,1,6 | 1,5,1.9756,1.4111,congruent,left,,,,,,stimulusFile/physical.xlsx,,,,,,,,,,,,,,,,,,,,,,,,,,,,,,,
,,,,,,,,,,,,,,,829,2022-02-16_20h44.04.414,multiplicationStroop,2021.2.3,Win32,59.95203837,,,,,right,1,0.527,0,47,47,29,1,4,3,4 | 3,1,1.4111,1.9756,incongruent,right,,,,,,stimulusFile/physical.xlsx,,,,,,,,,,,,,,,,,,,,,,,,,,,,,,,
,,,,,,,,,,,,,,,829,2022-02-16_20h44.04.414,multiplicationStroop,2021.2.3,Win32,59.95203837,,,,,left,1,0.518,0,48,48,70,1,8,8,8 | 8,0,1.9756,1.4111,neutral,left,,,,,,stimulusFile/physical.xlsx,,,,,,,,,,,,,,,,,,,,,,,,,,,,,,,
,,,,,,,,,,,,,,,829,2022-02-16_20h44.04.414,multiplicationStroop,2021.2.3,Win32,59.95203837,,,,,right,1,0.513,0,49,49,10,1,6,8,6 | 8,2,1.4111,1.9756,congruent,right,,,,,,stimulusFile/physical.xlsx,,,,,,,,,,,,,,,,,,,,,,,,,,,,,,,
,,,,,,,,,,,,,,,829,2022-02-16_20h44.04.414,multiplicationStroop,2021.2.3,Win32,59.95203837,,,,,left,1,0.485,0,50,50,41,1,2,7,2 | 7,5,1.9756,1.4111,incongruent,left,,,,,,stimulusFile/physical.xlsx,,,,,,,,,,,,,,,,,,,,,,,,,,,,,,,
,,,,,,,,,,,,,,,829,2022-02-16_20h44.04.414,multiplicationStroop,2021.2.3,Win32,59.95203837,,,,,left,1,0.598,0,51,51,35,1,7,9,7 | 9,2,1.9756,1.4111,incongruent,left,,,,,,stimulusFile/physical.xlsx,,,,,,,,,,,,,,,,,,,,,,,,,,,,,,,
,,,,,,,,,,,,,,,829,2022-02-16_20h44.04.414,multiplicationStroop,2021.2.3,Win32,59.95203837,,,,,left,0,0.563,0,52,52,64,1,1,1,1 | 1,0,1.9756,1.4111,neutral,right,,,,,,stimulusFile/physical.xlsx,,,,,,,,,,,,,,,,,,,,,,,,,,,,,,,
,,,,,,,,,,,,,,,829,2022-02-16_20h44.04.414,multiplicationStroop,2021.2.3,Win32,59.95203837,,,,,right,1,0.547,0,53,53,2,1,6,7,6 | 7,1,1.4111,1.9756,congruent,right,,,,,,stimulusFile/physical.xlsx,,,,,,,,,,,,,,,,,,,,,,,,,,,,,,,
,,,,,,,,,,,,,,,829,2022-02-16_20h44.04.414,multiplicationStroop,2021.2.3,Win32,59.95203837,,,,,right,1,0.602,0,54,54,46,1,8,3,8 | 3,5,1.4111,1.9756,incongruent,right,,,,,,stimulusFile/physical.xlsx,,,,,,,,,,,,,,,,,,,,,,,,,,,,,,,
,,,,,,,,,,,,,,,829,2022-02-16_20h44.04.414,multiplicationStroop,2021.2.3,Win32,59.95203837,,,,,right,1,0.563,0,55,55,59,1,7,7,7 | 7,0,1.4111,1.9756,neutral,right,,,,,,stimulusFile/physical.xlsx,,,,,,,,,,,,,,,,,,,,,,,,,,,,,,,
,,,,,,,,,,,,,,,829,2022-02-16_20h44.04.414,multiplicationStroop,2021.2.3,Win32,59.95203837,,,,,right,1,0.55,0,56,56,11,1,7,9,7 | 9,2,1.4111,1.9756,congruent,right,,,,,,stimulusFile/physical.xlsx,,,,,,,,,,,,,,,,,,,,,,,,,,,,,,,
,,,,,,,,,,,,,,,829,2022-02-16_20h44.04.414,multiplicationStroop,2021.2.3,Win32,59.95203837,,,,,right,1,0.616,0,57,57,45,1,7,2,7 | 2,5,1.4111,1.9756,incongruent,right,,,,,,stimulusFile/physical.xlsx,,,,,,,,,,,,,,,,,,,,,,,,,,,,,,,
,,,,,,,,,,,,,,,829,2022-02-16_20h44.04.414,multiplicationStroop,2021.2.3,Win32,59.95203837,,,,,left,1,0.538,0,58,58,15,1,9,7,9 | 7,2,1.9756,1.4111,congruent,left,,,,,,stimulusFile/physical.xlsx,,,,,,,,,,,,,,,,,,,,,,,,,,,,,,,
,,,,,,,,,,,,,,,829,2022-02-16_20h44.04.414,multiplicationStroop,2021.2.3,Win32,59.95203837,,,,,right,1,0.648,0,59,59,44,1,6,1,6 | 1,5,1.4111,1.9756,incongruent,right,,,,,,stimulusFile/physical.xlsx,,,,,,,,,,,,,,,,,,,,,,,,,,,,,,,
,,,,,,,,,,,,,,,829,2022-02-16_20h44.04.414,multiplicationStroop,2021.2.3,Win32,59.95203837,,,,,right,1,0.614,0,60,60,18,1,3,8,3 | 8,5,1.4111,1.9756,congruent,right,,,,,,stimulusFile/physical.xlsx,,,,,,,,,,,,,,,,,,,,,,,,,,,,,,,
,,,,,,,,,,,,,,,829,2022-02-16_20h44.04.414,multiplicationStroop,2021.2.3,Win32,59.95203837,,,,,right,1,0.617,0,61,61,39,1,9,7,9 | 7,2,1.4111,1.9756,incongruent,right,,,,,,stimulusFile/physical.xlsx,,,,,,,,,,,,,,,,,,,,,,,,,,,,,,,
,,,,,,,,,,,,,,,829,2022-02-16_20h44.04.414,multiplicationStroop,2021.2.3,Win32,59.95203837,,,,,right,1,0.654,0,62,62,28,1,2,1,2 | 1,1,1.4111,1.9756,incongruent,right,,,,,,stimulusFile/physical.xlsx,,,,,,,,,,,,,,,,,,,,,,,,,,,,,,,
,,,,,,,,,,,,,,,829,2022-02-16_20h44.04.414,multiplicationStroop,2021.2.3,Win32,59.95203837,,,,,left,1,0.566,0,63,63,42,1,3,8,3 | 8,5,1.9756,1.4111,incongruent,left,,,,,,stimulusFile/physical.xlsx,,,,,,,,,,,,,,,,,,,,,,,,,,,,,,,
,,,,,,,,,,,,,,,829,2022-02-16_20h44.04.414,multiplicationStroop,2021.2.3,Win32,59.95203837,,,,,right,1,0.497,0,64,64,3,1,8,9,8 | 9,1,1.4111,1.9756,congruent,right,,,,,,stimulusFile/physical.xlsx,,,,,,,,,,,,,,,,,,,,,,,,,,,,,,,
,,,,,,,,,,,,,,,829,2022-02-16_20h44.04.414,multiplicationStroop,2021.2.3,Win32,59.95203837,,,,,right,1,0.537,0,65,65,60,1,3,3,3 | 3,0,1.4111,1.9756,neutral,right,,,,,,stimulusFile/physical.xlsx,,,,,,,,,,,,,,,,,,,,,,,,,,,,,,,
,,,,,,,,,,,,,,,829,2022-02-16_20h44.04.414,multiplicationStroop,2021.2.3,Win32,59.95203837,,,,,left,1,0.581,0,66,66,27,1,8,9,8 | 9,1,1.9756,1.4111,incongruent,left,,,,,,stimulusFile/physical.xlsx,,,,,,,,,,,,,,,,,,,,,,,,,,,,,,,
,,,,,,,,,,,,,,,829,2022-02-16_20h44.04.414,multiplicationStroop,2021.2.3,Win32,59.95203837,,,,,left,1,0.516,0,67,67,54,1,7,7,7 | 7,0,1.9756,1.4111,neutral,left,,,,,,stimulusFile/physical.xlsx,,,,,,,,,,,,,,,,,,,,,,,,,,,,,,,
,,,,,,,,,,,,,,,829,2022-02-16_20h44.04.414,multiplicationStroop,2021.2.3,Win32,59.95203837,,,,,right,1,0.613,0,68,68,47,1,9,4,9 | 4,5,1.4111,1.9756,incongruent,right,,,,,,stimulusFile/physical.xlsx,,,,,,,,,,,,,,,,,,,,,,,,,,,,,,,
,,,,,,,,,,,,,,,829,2022-02-16_20h44.04.414,multiplicationStroop,2021.2.3,Win32,59.95203837,,,,,right,1,0.531,0,69,69,30,1,7,6,7 | 6,1,1.4111,1.9756,incongruent,right,,,,,,stimulusFile/physical.xlsx,,,,,,,,,,,,,,,,,,,,,,,,,,,,,,,
,,,,,,,,,,,,,,,829,2022-02-16_20h44.04.414,multiplicationStroop,2021.2.3,Win32,59.95203837,,,,,left,1,0.598,0,70,70,43,1,4,9,4 | 9,5,1.9756,1.4111,incongruent,left,,,,,,stimulusFile/physical.xlsx,,,,,,,,,,,,,,,,,,,,,,,,,,,,,,,
,,,,,,,,,,,,,,,829,2022-02-16_20h44.04.414,multiplicationStroop,2021.2.3,Win32,59.95203837,,,,,right,1,0.531,0,71,71,0,1,1,2,1 | 2,1,1.4111,1.9756,congruent,right,,,,,,stimulusFile/physical.xlsx,,,,,,,,,,,,,,,,,,,,,,,,,,,,,,,
,,,,,,,,,,,,,,,829,2022-02-16_20h44.04.414,multiplicationStroop,2021.2.3,Win32,59.95203837,,,,,,,,,,,,,,,,,,,,,0,1,1,1,1,stimulusFile/physical.xlsx,PHYSICALLY larger (larger font size).,images/physicallyLarger.png,,,,,,,,,,,,,,,,,,,,,,,,,,,,,
,,,,,,,,,,,,,,,829,2022-02-16_20h44.04.414,multiplicationStroop,2021.2.3,Win32,59.95203837,,,,,,,,,,,,,,,,,,,,,,,,,,,,,space,7.719,space,2.587,45,2.807,0,0,0,0,12,1,5,×,7,5 × 7,incongruent,smallerFirst,2,1,35,,,,,,,,
,,,,,,,,,,,,,,,829,2022-02-16_20h44.04.414,multiplicationStroop,2021.2.3,Win32,59.95203837,,,,,,,,,,,,,,,,,,,,,,,,,,,,,,,,,4,1.645,1,0,1,1,28,1,2,×,2,2 × 2,incongruent,tie,1,2,4,,,,,,,,
,,,,,,,,,,,,,,,829,2022-02-16_20h44.04.414,multiplicationStroop,2021.2.3,Win32,59.95203837,,,,,,,,,,,,,,,,,,,,,,,,,,,,,,,,,12,2.398,1,0,2,2,5,1,3,×,4,3 × 4,incongruent,smallerFirst,2,1,12,,,,,,,,
,,,,,,,,,,,,,,,829,2022-02-16_20h44.04.414,multiplicationStroop,2021.2.3,Win32,59.95203837,,,,,,,,,,,,,,,,,,,,,,,,,,,,,,,,,21,1.58,1,0,3,3,26,1,7,×,3,7 × 3,incongruent,largerFirst,1,2,21,,,,,,,,
,,,,,,,,,,,,,,,829,2022-02-16_20h44.04.414,multiplicationStroop,2021.2.3,Win32,59.95203837,,,,,,,,,,,,,,,,,,,,,,,,,,,,,,,,,10,2.748,1,0,4,4,21,1,5,×,2,5 × 2,incongruent,largerFirst,1,2,10,,,,,,,,
,,,,,,,,,,,,,,,829,2022-02-16_20h44.04.414,multiplicationStroop,2021.2.3,Win32,59.95203837,,,,,,,,,,,,,,,,,,,,,,,,,,,,,,,,,27,2.267,1,0,5,5,18,1,9,×,3,9 × 3,incongruent,largerFirst,1,2,27,,,,,,,,
,,,,,,,,,,,,,,,829,2022-02-16_20h44.04.414,multiplicationStroop,2021.2.3,Win32,59.95203837,,,,,,,,,,,,,,,,,,,,,,,,,,,,,,,,,25,1.764,1,0,6,6,31,1,5,×,5,5 × 5,incongruent,tie,1,2,25,,,,,,,,
,,,,,,,,,,,,,,,829,2022-02-16_20h44.04.414,multiplicationStroop,2021.2.3,Win32,59.95203837,,,,,,,,,,,,,,,,,,,,,,,,,,,,,,,,,63,7.786,1,0,7,7,3,1,7,×,9,7 × 9,incongruent,smallerFirst,2,1,63,,,,,,,,
,,,,,,,,,,,,,,,829,2022-02-16_20h44.04.414,multiplicationStroop,2021.2.3,Win32,59.95203837,,,,,,,,,,,,,,,,,,,,,,,,,,,,,,,,,36,1.963,1,0,8,8,32,1,6,×,6,6 × 6,incongruent,tie,1,2,36,,,,,,,,
,,,,,,,,,,,,,,,829,2022-02-16_20h44.04.414,multiplicationStroop,2021.2.3,Win32,59.95203837,,,,,,,,,,,,,,,,,,,,,,,,,,,,,,,,,16,2.43,1,0,9,9,23,1,8,×,2,8 × 2,incongruent,largerFirst,1,2,16,,,,,,,,
,,,,,,,,,,,,,,,829,2022-02-16_20h44.04.414,multiplicationStroop,2021.2.3,Win32,59.95203837,,,,,,,,,,,,,,,,,,,,,,,,,,,,,,,,,9,1.766,1,0,10,10,29,1,3,×,3,3 × 3,incongruent,tie,1,2,9,,,,,,,,
,,,,,,,,,,,,,,,829,2022-02-16_20h44.04.414,multiplicationStroop,2021.2.3,Win32,59.95203837,,,,,,,,,,,,,,,,,,,,,,,,,,,,,,,,,14,1.747,1,0,11,11,4,1,2,×,7,2 × 7,incongruent,smallerFirst,2,1,14,,,,,,,,
,,,,,,,,,,,,,,,829,2022-02-16_20h44.04.414,multiplicationStroop,2021.2.3,Win32,59.95203837,,,,,,,,,,,,,,,,,,,,,,,,,,,,,,,,,15,1.911,1,0,12,12,10,1,3,×,5,3 × 5,incongruent,smallerFirst,2,1,15,,,,,,,,
,,,,,,,,,,,,,,,829,2022-02-16_20h44.04.414,multiplicationStroop,2021.2.3,Win32,59.95203837,,,,,,,,,,,,,,,,,,,,,,,,,,,,,,,,,64,2.931,1,0,13,13,34,1,8,×,8,8 × 8,incongruent,tie,1,2,64,,,,,,,,
,,,,,,,,,,,,,,,829,2022-02-16_20h44.04.414,multiplicationStroop,2021.2.3,Win32,59.95203837,,,,,,,,,,,,,,,,,,,,,,,,,,,,,,,,,30,2.448,1,0,14,14,25,1,6,×,5,6 × 5,incongruent,largerFirst,1,2,30,,,,,,,,
,,,,,,,,,,,,,,,829,2022-02-16_20h44.04.414,multiplicationStroop,2021.2.3,Win32,59.95203837,,,,,,,,,,,,,,,,,,,,,,,,,,,,,,,,,81,2.847,1,0,15,15,35,1,9,×,9,9 × 9,incongruent,tie,1,2,81,,,,,,,,
,,,,,,,,,,,,,,,829,2022-02-16_20h44.04.414,multiplicationStroop,2021.2.3,Win32,59.95203837,,,,,,,,,,,,,,,,,,,,,,,,,,,,,,,,,20,1.929,1,0,16,16,27,1,5,×,4,5 × 4,incongruent,largerFirst,1,2,20,,,,,,,,
,,,,,,,,,,,,,,,829,2022-02-16_20h44.04.414,multiplicationStroop,2021.2.3,Win32,59.95203837,,,,,,,,,,,,,,,,,,,,,,,,,,,,,,,,,49,2.147,1,0,17,17,33,1,7,×,7,7 × 7,incongruent,tie,1,2,49,,,,,,,,
,,,,,,,,,,,,,,,829,2022-02-16_20h44.04.414,multiplicationStroop,2021.2.3,Win32,59.95203837,,,,,,,,,,,,,,,,,,,,,,,,,,,,,,,,,40,2.148,1,0,18,18,13,1,5,×,8,5 × 8,incongruent,smallerFirst,2,1,40,,,,,,,,
,,,,,,,,,,,,,,,829,2022-02-16_20h44.04.414,multiplicationStroop,2021.2.3,Win32,59.95203837,,,,,,,,,,,,,,,,,,,,,,,,,,,,,,,,,24,2.248,1,0,19,19,9,1,3,×,8,3 × 8,incongruent,smallerFirst,2,1,24,,,,,,,,
,,,,,,,,,,,,,,,829,2022-02-16_20h44.04.414,multiplicationStroop,2021.2.3,Win32,59.95203837,,,,,,,,,,,,,,,,,,,,,,,,,,,,,,,,,56,3.013,0,0,20,20,6,1,6,×,9,6 × 9,incongruent,smallerFirst,2,1,54,,,,,,,,
,,,,,,,,,,,,,,,829,2022-02-16_20h44.04.414,multiplicationStroop,2021.2.3,Win32,59.95203837,,,,,,,,,,,,,,,,,,,,,,,,,,,,,,,,,18,1.963,1,0,21,21,2,1,2,×,9,2 × 9,incongruent,smallerFirst,2,1,18,,,,,,,,
,,,,,,,,,,,,,,,829,2022-02-16_20h44.04.414,multiplicationStroop,2021.2.3,Win32,59.95203837,,,,,,,,,,,,,,,,,,,,,,,,,,,,,,,,,12,1.583,1,0,22,22,19,1,6,×,2,6 × 2,incongruent,largerFirst,1,2,12,,,,,,,,
,,,,,,,,,,,,,,,829,2022-02-16_20h44.04.414,multiplicationStroop,2021.2.3,Win32,59.95203837,,,,,,,,,,,,,,,,,,,,,,,,,,,,,,,,,24,1.662,1,0,23,23,20,1,6,×,4,6 × 4,incongruent,largerFirst,1,2,24,,,,,,,,
,,,,,,,,,,,,,,,829,2022-02-16_20h44.04.414,multiplicationStroop,2021.2.3,Win32,59.95203837,,,,,,,,,,,,,,,,,,,,,,,,,,,,,,,,,6,2.166,1,0,24,24,11,1,2,×,3,2 × 3,incongruent,smallerFirst,2,1,6,,,,,,,,
,,,,,,,,,,,,,,,829,2022-02-16_20h44.04.414,multiplicationStroop,2021.2.3,Win32,59.95203837,,,,,,,,,,,,,,,,,,,,,,,,,,,,,,,,,56,8.655,0,0,25,25,1,1,6,×,8,6 × 8,incongruent,smallerFirst,2,1,48,,,,,,,,
,,,,,,,,,,,,,,,829,2022-02-16_20h44.04.414,multiplicationStroop,2021.2.3,Win32,59.95203837,,,,,,,,,,,,,,,,,,,,,,,,,,,,,,,,,36,2.362,1,0,26,26,15,1,9,×,4,9 × 4,incongruent,largerFirst,1,2,36,,,,,,,,
,,,,,,,,,,,,,,,829,2022-02-16_20h44.04.414,multiplicationStroop,2021.2.3,Win32,59.95203837,,,,,,,,,,,,,,,,,,,,,,,,,,,,,,,,,32,4.748,1,0,27,27,7,1,4,×,8,4 × 8,incongruent,smallerFirst,2,1,32,,,,,,,,
,,,,,,,,,,,,,,,829,2022-02-16_20h44.04.414,multiplicationStroop,2021.2.3,Win32,59.95203837,,,,,,,,,,,,,,,,,,,,,,,,,,,,,,,,,72,3.648,1,0,28,28,0,1,8,×,9,8 × 9,incongruent,smallerFirst,2,1,72,,,,,,,,
,,,,,,,,,,,,,,,829,2022-02-16_20h44.04.414,multiplicationStroop,2021.2.3,Win32,59.95203837,,,,,,,,,,,,,,,,,,,,,,,,,,,,,,,,,42,9.319,1,0,29,29,17,1,7,×,6,7 × 6,incongruent,largerFirst,1,2,42,,,,,,,,
,,,,,,,,,,,,,,,829,2022-02-16_20h44.04.414,multiplicationStroop,2021.2.3,Win32,59.95203837,,,,,,,,,,,,,,,,,,,,,,,,,,,,,,,,,45,2.765,1,0,30,30,22,1,9,×,5,9 × 5,incongruent,largerFirst,1,2,45,,,,,,,,
,,,,,,,,,,,,,,,829,2022-02-16_20h44.04.414,multiplicationStroop,2021.2.3,Win32,59.95203837,,,,,,,,,,,,,,,,,,,,,,,,,,,,,,,,,56,8.55,1,0,31,31,14,1,8,×,7,8 × 7,incongruent,largerFirst,1,2,56,,,,,,,,
,,,,,,,,,,,,,,,829,2022-02-16_20h44.04.414,multiplicationStroop,2021.2.3,Win32,59.95203837,,,,,,,,,,,,,,,,,,,,,,,,,,,,,,,,,28,2.146,1,0,32,32,16,1,7,×,4,7 × 4,incongruent,largerFirst,1,2,28,,,,,,,,
,,,,,,,,,,,,,,,829,2022-02-16_20h44.04.414,multiplicationStroop,2021.2.3,Win32,59.95203837,,,,,,,,,,,,,,,,,,,,,,,,,,,,,,,,,16,2.079,1,0,33,33,30,1,4,×,4,4 × 4,incongruent,tie,1,2,16,,,,,,,,
,,,,,,,,,,,,,,,829,2022-02-16_20h44.04.414,multiplicationStroop,2021.2.3,Win32,59.95203837,,,,,,,,,,,,,,,,,,,,,,,,,,,,,,,,,8,1.813,1,0,34,34,24,1,4,×,2,4 × 2,incongruent,largerFirst,1,2,8,,,,,,,,
,,,,,,,,,,,,,,,829,2022-02-16_20h44.04.414,multiplicationStroop,2021.2.3,Win32,59.95203837,,,,,,,,,,,,,,,,,,,,,,,,,,,,,,,,,18,2.263,1,0,35,35,8,1,3,×,6,3 × 6,incongruent,smallerFirst,2,1,18,,,,,,,,
,,,,,,,,,,,,,,,829,2022-02-16_20h44.04.414,multiplicationStroop,2021.2.3,Win32,59.95203837,,,,,,,,,,,,,,,,,,,,,,,,,,,,,,,,,,,,,,,,,,,,,,,,,,0,0,0,5,1,stimulusFile/mult_blk6_INcongruent.xlsx,,
,,,,,,,,,,,,,,,829,2022-02-16_20h44.04.414,multiplicationStroop,2021.2.3,Win32,59.95203837,,,,,,,,,,,,,,,,,,,,,,,,,,,,,,,space,14.724,16,2.326,1,0,0,0,5,1,2,×,8,2 × 8,congruent,smallerFirst,1,2,16,,,,,,,,
,,,,,,,,,,,,,,,829,2022-02-16_20h44.04.414,multiplicationStroop,2021.2.3,Win32,59.95203837,,,,,,,,,,,,,,,,,,,,,,,,,,,,,,,,,16,1.661,1,0,1,1,30,1,4,×,4,4 × 4,neutral,tie,2,1,16,,,,,,,,
,,,,,,,,,,,,,,,829,2022-02-16_20h44.04.414,multiplicationStroop,2021.2.3,Win32,59.95203837,,,,,,,,,,,,,,,,,,,,,,,,,,,,,,,,,4,1.429,1,0,2,2,28,1,2,×,2,2 × 2,neutral,tie,2,1,4,,,,,,,,
,,,,,,,,,,,,,,,829,2022-02-16_20h44.04.414,multiplicationStroop,2021.2.3,Win32,59.95203837,,,,,,,,,,,,,,,,,,,,,,,,,,,,,,,,,20,1.681,1,0,3,3,7,1,4,×,5,4 × 5,congruent,smallerFirst,1,2,20,,,,,,,,
,,,,,,,,,,,,,,,829,2022-02-16_20h44.04.414,multiplicationStroop,2021.2.3,Win32,59.95203837,,,,,,,,,,,,,,,,,,,,,,,,,,,,,,,,,63,5.765,1,0,4,4,21,1,9,×,7,9 × 7,congruent,largerFirst,2,1,63,,,,,,,,
,,,,,,,,,,,,,,,829,2022-02-16_20h44.04.414,multiplicationStroop,2021.2.3,Win32,59.95203837,,,,,,,,,,,,,,,,,,,,,,,,,,,,,,,,,25,1.966,0,0,5,5,4,1,3,×,5,3 × 5,congruent,smallerFirst,1,2,15,,,,,,,,
,,,,,,,,,,,,,,,829,2022-02-16_20h44.04.414,multiplicationStroop,2021.2.3,Win32,59.95203837,,,,,,,,,,,,,,,,,,,,,,,,,,,,,,,,,10,2.117,1,0,6,6,24,1,5,×,2,5 × 2,congruent,largerFirst,2,1,10,,,,,,,,
,,,,,,,,,,,,,,,829,2022-02-16_20h44.04.414,multiplicationStroop,2021.2.3,Win32,59.95203837,,,,,,,,,,,,,,,,,,,,,,,,,,,,,,,,,18,2.029,1,0,7,7,11,1,3,×,6,3 × 6,congruent,smallerFirst,1,2,18,,,,,,,,
,,,,,,,,,,,,,,,829,2022-02-16_20h44.04.414,multiplicationStroop,2021.2.3,Win32,59.95203837,,,,,,,,,,,,,,,,,,,,,,,,,,,,,,,,,81,2.763,1,0,8,8,35,1,9,×,9,9 × 9,neutral,tie,2,1,81,,,,,,,,
,,,,,,,,,,,,,,,829,2022-02-16_20h44.04.414,multiplicationStroop,2021.2.3,Win32,59.95203837,,,,,,,,,,,,,,,,,,,,,,,,,,,,,,,,,36,2.747,1,0,9,9,0,1,4,×,9,4 × 9,congruent,smallerFirst,1,2,36,,,,,,,,
,,,,,,,,,,,,,,,829,2022-02-16_20h44.04.414,multiplicationStroop,2021.2.3,Win32,59.95203837,,,,,,,,,,,,,,,,,,,,,,,,,,,,,,,,,56,7.901,1,0,10,10,8,1,7,×,8,7 × 8,congruent,smallerFirst,1,2,56,,,,,,,,
,,,,,,,,,,,,,,,829,2022-02-16_20h44.04.414,multiplicationStroop,2021.2.3,Win32,59.95203837,,,,,,,,,,,,,,,,,,,,,,,,,,,,,,,,,52,8.149,0,0,11,11,3,1,6,×,7,6 × 7,congruent,smallerFirst,1,2,42,,,,,,,,
,,,,,,,,,,,,,,,829,2022-02-16_20h44.04.414,multiplicationStroop,2021.2.3,Win32,59.95203837,,,,,,,,,,,,,,,,,,,,,,,,,,,,,,,,,14,1.846,1,0,12,12,14,1,7,×,2,7 × 2,congruent,largerFirst,2,1,14,,,,,,,,
,,,,,,,,,,,,,,,829,2022-02-16_20h44.04.414,multiplicationStroop,2021.2.3,Win32,59.95203837,,,,,,,,,,,,,,,,,,,,,,,,,,,,,,,,,36,1.913,1,0,13,13,32,1,6,×,6,6 × 6,neutral,tie,2,1,36,,,,,,,,
,,,,,,,,,,,,,,,829,2022-02-16_20h44.04.414,multiplicationStroop,2021.2.3,Win32,59.95203837,,,,,,,,,,,,,,,,,,,,,,,,,,,,,,,,,24,2.081,1,0,14,14,25,1,6,×,4,6 × 4,congruent,largerFirst,2,1,24,,,,,,,,
,,,,,,,,,,,,,,,829,2022-02-16_20h44.04.414,multiplicationStroop,2021.2.3,Win32,59.95203837,,,,,,,,,,,,,,,,,,,,,,,,,,,,,,,,,49,2.215,1,0,15,15,33,1,7,×,7,7 × 7,neutral,tie,2,1,49,,,,,,,,
,,,,,,,,,,,,,,,829,2022-02-16_20h44.04.414,multiplicationStroop,2021.2.3,Win32,59.95203837,,,,,,,,,,,,,,,,,,,,,,,,,,,,,,,,,25,1.782,1,0,16,16,31,1,5,×,5,5 × 5,neutral,tie,2,1,25,,,,,,,,
,,,,,,,,,,,,,,,829,2022-02-16_20h44.04.414,multiplicationStroop,2021.2.3,Win32,59.95203837,,,,,,,,,,,,,,,,,,,,,,,,,,,,,,,,,72,3.017,1,0,17,17,17,1,9,×,8,9 × 8,congruent,largerFirst,2,1,72,,,,,,,,
,,,,,,,,,,,,,,,829,2022-02-16_20h44.04.414,multiplicationStroop,2021.2.3,Win32,59.95203837,,,,,,,,,,,,,,,,,,,,,,,,,,,,,,,,,27,2.433,1,0,18,18,26,1,9,×,3,9 × 3,congruent,largerFirst,2,1,27,,,,,,,,
,,,,,,,,,,,,,,,829,2022-02-16_20h44.04.414,multiplicationStroop,2021.2.3,Win32,59.95203837,,,,,,,,,,,,,,,,,,,,,,,,,,,,,,,,,40,2.072,1,0,19,19,6,1,5,×,8,5 × 8,congruent,smallerFirst,1,2,40,,,,,,,,
,,,,,,,,,,,,,,,829,2022-02-16_20h44.04.414,multiplicationStroop,2021.2.3,Win32,59.95203837,,,,,,,,,,,,,,,,,,,,,,,,,,,,,,,,,24,5.527,1,0,20,20,10,1,3,×,8,3 × 8,congruent,smallerFirst,1,2,24,,,,,,,,
,,,,,,,,,,,,,,,829,2022-02-16_20h44.04.414,multiplicationStroop,2021.2.3,Win32,59.95203837,,,,,,,,,,,,,,,,,,,,,,,,,,,,,,,,,8,4.345,1,0,21,21,9,1,2,×,4,2 × 4,congruent,smallerFirst,1,2,8,,,,,,,,
,,,,,,,,,,,,,,,829,2022-02-16_20h44.04.414,multiplicationStroop,2021.2.3,Win32,59.95203837,,,,,,,,,,,,,,,,,,,,,,,,,,,,,,,,,45,1.896,0,0,22,22,1,1,5,×,7,5 × 7,congruent,smallerFirst,1,2,35,,,,,,,,
,,,,,,,,,,,,,,,829,2022-02-16_20h44.04.414,multiplicationStroop,2021.2.3,Win32,59.95203837,,,,,,,,,,,,,,,,,,,,,,,,,,,,,,,,,48,3.814,1,0,23,23,18,1,8,×,6,8 × 6,congruent,largerFirst,2,1,48,,,,,,,,
,,,,,,,,,,,,,,,829,2022-02-16_20h44.04.414,multiplicationStroop,2021.2.3,Win32,59.95203837,,,,,,,,,,,,,,,,,,,,,,,,,,,,,,,,,21,1.78,1,0,24,24,16,1,7,×,3,7 × 3,congruent,largerFirst,2,1,21,,,,,,,,
,,,,,,,,,,,,,,,829,2022-02-16_20h44.04.414,multiplicationStroop,2021.2.3,Win32,59.95203837,,,,,,,,,,,,,,,,,,,,,,,,,,,,,,,,,12,1.799,1,0,25,25,19,1,6,×,2,6 × 2,congruent,largerFirst,2,1,12,,,,,,,,
,,,,,,,,,,,,,,,829,2022-02-16_20h44.04.414,multiplicationStroop,2021.2.3,Win32,59.95203837,,,,,,,,,,,,,,,,,,,,,,,,,,,,,,,,,64,3.716,1,0,26,26,34,1,8,×,8,8 × 8,neutral,tie,2,1,64,,,,,,,,
,,,,,,,,,,,,,,,829,2022-02-16_20h44.04.414,multiplicationStroop,2021.2.3,Win32,59.95203837,,,,,,,,,,,,,,,,,,,,,,,,,,,,,,,,,56,5.701,0,0,27,27,12,1,6,×,9,6 × 9,congruent,smallerFirst,1,2,54,,,,,,,,
,,,,,,,,,,,,,,,829,2022-02-16_20h44.04.414,multiplicationStroop,2021.2.3,Win32,59.95203837,,,,,,,,,,,,,,,,,,,,,,,,,,,,,,,,,18,2.046,1,0,28,28,22,1,9,×,2,9 × 2,congruent,largerFirst,2,1,18,,,,,,,,
,,,,,,,,,,,,,,,829,2022-02-16_20h44.04.414,multiplicationStroop,2021.2.3,Win32,59.95203837,,,,,,,,,,,,,,,,,,,,,,,,,,,,,,,,,45,2.746,1,0,29,29,23,1,9,×,5,9 × 5,congruent,largerFirst,2,1,45,,,,,,,,
,,,,,,,,,,,,,,,829,2022-02-16_20h44.04.414,multiplicationStroop,2021.2.3,Win32,59.95203837,,,,,,,,,,,,,,,,,,,,,,,,,,,,,,,,,28,2.145,1,0,30,30,27,1,7,×,4,7 × 4,congruent,largerFirst,2,1,28,,,,,,,,
,,,,,,,,,,,,,,,829,2022-02-16_20h44.04.414,multiplicationStroop,2021.2.3,Win32,59.95203837,,,,,,,,,,,,,,,,,,,,,,,,,,,,,,,,,6,2.061,1,0,31,31,13,1,2,×,3,2 × 3,congruent,smallerFirst,1,2,6,,,,,,,,
,,,,,,,,,,,,,,,829,2022-02-16_20h44.04.414,multiplicationStroop,2021.2.3,Win32,59.95203837,,,,,,,,,,,,,,,,,,,,,,,,,,,,,,,,,9,1.696,1,0,32,32,29,1,3,×,3,3 × 3,neutral,tie,2,1,9,,,,,,,,
,,,,,,,,,,,,,,,829,2022-02-16_20h44.04.414,multiplicationStroop,2021.2.3,Win32,59.95203837,,,,,,,,,,,,,,,,,,,,,,,,,,,,,,,,,12,1.697,1,0,33,33,2,1,3,×,4,3 × 4,congruent,smallerFirst,1,2,12,,,,,,,,
,,,,,,,,,,,,,,,829,2022-02-16_20h44.04.414,multiplicationStroop,2021.2.3,Win32,59.95203837,,,,,,,,,,,,,,,,,,,,,,,,,,,,,,,,,30,1.913,1,0,34,34,15,1,6,×,5,6 × 5,congruent,largerFirst,2,1,30,,,,,,,,
,,,,,,,,,,,,,,,829,2022-02-16_20h44.04.414,multiplicationStroop,2021.2.3,Win32,59.95203837,,,,,,,,,,,,,,,,,,,,,,,,,,,,,,,,,36,5.248,0,0,35,35,20,1,8,×,4,8 × 4,congruent,largerFirst,2,1,32,,,,,,,,
,,,,,,,,,,,,,,,829,2022-02-16_20h44.04.414,multiplicationStroop,2021.2.3,Win32,59.95203837,,,,,,,,,,,,,,,,,,,,,,,,,,,,,,,,,,,,,,,,,,,,,,,,,,0,1,1,2,1,stimulusFile/mult_blk3_congruent.xlsx,,
,,,,,,,,,,,,,,,829,2022-02-16_20h44.04.414,multiplicationStroop,2021.2.3,Win32,59.95203837,,,,,,,,,,,,,,,,,,,,,,,,,,,,,,,space,2.07,40,1.824,1,0,0,0,24,1,8,×,5,8 × 5,neutral,largerFirst,1.5,1.5,40,,,,,,,,
,,,,,,,,,,,,,,,829,2022-02-16_20h44.04.414,multiplicationStroop,2021.2.3,Win32,59.95203837,,,,,,,,,,,,,,,,,,,,,,,,,,,,,,,,,18,2.03,1,0,1,1,0,1,3,×,6,3 × 6,neutral,smallerFirst,1.5,1.5,18,,,,,,,,
,,,,,,,,,,,,,,,829,2022-02-16_20h44.04.414,multiplicationStroop,2021.2.3,Win32,59.95203837,,,,,,,,,,,,,,,,,,,,,,,,,,,,,,,,,36,3.048,1,0,2,2,27,1,9,×,4,9 × 4,neutral,largerFirst,1.5,1.5,36,,,,,,,,
,,,,,,,,,,,,,,,829,2022-02-16_20h44.04.414,multiplicationStroop,2021.2.3,Win32,59.95203837,,,,,,,,,,,,,,,,,,,,,,,,,,,,,,,,,45,1.997,0,0,3,3,1,1,5,×,7,5 × 7,neutral,smallerFirst,1.5,1.5,35,,,,,,,,
,,,,,,,,,,,,,,,829,2022-02-16_20h44.04.414,multiplicationStroop,2021.2.3,Win32,59.95203837,,,,,,,,,,,,,,,,,,,,,,,,,,,,,,,,,36,2.017,1,0,4,4,32,1,6,×,6,6 × 6,neutral,tie,1.5,1.5,36,,,,,,,,
,,,,,,,,,,,,,,,829,2022-02-16_20h44.04.414,multiplicationStroop,2021.2.3,Win32,59.95203837,,,,,,,,,,,,,,,,,,,,,,,,,,,,,,,,,16,2.066,1,0,5,5,13,1,2,×,8,2 × 8,neutral,smallerFirst,1.5,1.5,16,,,,,,,,
,,,,,,,,,,,,,,,829,2022-02-16_20h44.04.414,multiplicationStroop,2021.2.3,Win32,59.95203837,,,,,,,,,,,,,,,,,,,,,,,,,,,,,,,,,15,1.932,1,0,6,6,5,1,3,×,5,3 × 5,neutral,smallerFirst,1.5,1.5,15,,,,,,,,
,,,,,,,,,,,,,,,829,2022-02-16_20h44.04.414,multiplicationStroop,2021.2.3,Win32,59.95203837,,,,,,,,,,,,,,,,,,,,,,,,,,,,,,,,,49,1.945,1,0,7,7,33,1,7,×,7,7 × 7,neutral,tie,1.5,1.5,49,,,,,,,,
,,,,,,,,,,,,,,,829,2022-02-16_20h44.04.414,multiplicationStroop,2021.2.3,Win32,59.95203837,,,,,,,,,,,,,,,,,,,,,,,,,,,,,,,,,12,1.662,1,0,8,8,21,1,4,×,3,4 × 3,neutral,largerFirst,1.5,1.5,12,,,,,,,,
,,,,,,,,,,,,,,,829,2022-02-16_20h44.04.414,multiplicationStroop,2021.2.3,Win32,59.95203837,,,,,,,,,,,,,,,,,,,,,,,,,,,,,,,,,14,1.629,1,0,9,9,16,1,7,×,2,7 × 2,neutral,largerFirst,1.5,1.5,14,,,,,,,,
,,,,,,,,,,,,,,,829,2022-02-16_20h44.04.414,multiplicationStroop,2021.2.3,Win32,59.95203837,,,,,,,,,,,,,,,,,,,,,,,,,,,,,,,,,10,1.746,1,0,10,10,4,1,2,×,5,2 × 5,neutral,smallerFirst,1.5,1.5,10,,,,,,,,
,,,,,,,,,,,,,,,829,2022-02-16_20h44.04.414,multiplicationStroop,2021.2.3,Win32,59.95203837,,,,,,,,,,,,,,,,,,,,,,,,,,,,,,,,,20,1.766,1,0,11,11,20,1,5,×,4,5 × 4,neutral,largerFirst,1.5,1.5,20,,,,,,,,
,,,,,,,,,,,,,,,829,2022-02-16_20h44.04.414,multiplicationStroop,2021.2.3,Win32,59.95203837,,,,,,,,,,,,,,,,,,,,,,,,,,,,,,,,,27,2.497,1,0,12,12,14,1,9,×,3,9 × 3,neutral,largerFirst,1.5,1.5,27,,,,,,,,
,,,,,,,,,,,,,,,829,2022-02-16_20h44.04.414,multiplicationStroop,2021.2.3,Win32,59.95203837,,,,,,,,,,,,,,,,,,,,,,,,,,,,,,,,,81,2.88,1,0,13,13,35,1,9,×,9,9 × 9,neutral,tie,1.5,1.5,81,,,,,,,,
,,,,,,,,,,,,,,,829,2022-02-16_20h44.04.414,multiplicationStroop,2021.2.3,Win32,59.95203837,,,,,,,,,,,,,,,,,,,,,,,,,,,,,,,,,63,3.966,1,0,14,14,12,1,7,×,9,7 × 9,neutral,smallerFirst,1.5,1.5,63,,,,,,,,
,,,,,,,,,,,,,,,829,2022-02-16_20h44.04.414,multiplicationStroop,2021.2.3,Win32,59.95203837,,,,,,,,,,,,,,,,,,,,,,,,,,,,,,,,,9,1.849,1,0,15,15,29,1,3,×,3,3 × 3,neutral,tie,1.5,1.5,9,,,,,,,,
,,,,,,,,,,,,,,,829,2022-02-16_20h44.04.414,multiplicationStroop,2021.2.3,Win32,59.95203837,,,,,,,,,,,,,,,,,,,,,,,,,,,,,,,,,28,2.147,1,0,16,16,17,1,7,×,4,7 × 4,neutral,largerFirst,1.5,1.5,28,,,,,,,,
,,,,,,,,,,,,,,,829,2022-02-16_20h44.04.414,multiplicationStroop,2021.2.3,Win32,59.95203837,,,,,,,,,,,,,,,,,,,,,,,,,,,,,,,,,48,4.116,1,0,17,17,15,1,8,×,6,8 × 6,neutral,largerFirst,1.5,1.5,48,,,,,,,,
,,,,,,,,,,,,,,,829,2022-02-16_20h44.04.414,multiplicationStroop,2021.2.3,Win32,59.95203837,,,,,,,,,,,,,,,,,,,,,,,,,,,,,,,,,72,2.614,1,0,18,18,11,1,8,×,9,8 × 9,neutral,smallerFirst,1.5,1.5,72,,,,,,,,
,,,,,,,,,,,,,,,829,2022-02-16_20h44.04.414,multiplicationStroop,2021.2.3,Win32,59.95203837,,,,,,,,,,,,,,,,,,,,,,,,,,,,,,,,,52,3.935,0,0,19,19,6,1,6,×,7,6 × 7,neutral,smallerFirst,1.5,1.5,42,,,,,,,,
,,,,,,,,,,,,,,,829,2022-02-16_20h44.04.414,multiplicationStroop,2021.2.3,Win32,59.95203837,,,,,,,,,,,,,,,,,,,,,,,,,,,,,,,,,24,4.08,1,0,20,20,2,1,4,×,6,4 × 6,neutral,smallerFirst,1.5,1.5,24,,,,,,,,
,,,,,,,,,,,,,,,829,2022-02-16_20h44.04.414,multiplicationStroop,2021.2.3,Win32,59.95203837,,,,,,,,,,,,,,,,,,,,,,,,,,,,,,,,,12,1.696,1,0,21,21,25,1,6,×,2,6 × 2,neutral,largerFirst,1.5,1.5,12,,,,,,,,
,,,,,,,,,,,,,,,829,2022-02-16_20h44.04.414,multiplicationStroop,2021.2.3,Win32,59.95203837,,,,,,,,,,,,,,,,,,,,,,,,,,,,,,,,,24,1.895,1,0,22,22,22,1,8,×,3,8 × 3,neutral,largerFirst,1.5,1.5,24,,,,,,,,
,,,,,,,,,,,,,,,829,2022-02-16_20h44.04.414,multiplicationStroop,2021.2.3,Win32,59.95203837,,,,,,,,,,,,,,,,,,,,,,,,,,,,,,,,,6,1.746,1,0,23,23,26,1,3,×,2,3 × 2,neutral,largerFirst,1.5,1.5,6,,,,,,,,
,,,,,,,,,,,,,,,829,2022-02-16_20h44.04.414,multiplicationStroop,2021.2.3,Win32,59.95203837,,,,,,,,,,,,,,,,,,,,,,,,,,,,,,,,,16,3.566,1,0,24,24,30,1,4,×,4,4 × 4,neutral,tie,1.5,1.5,16,,,,,,,,
,,,,,,,,,,,,,,,829,2022-02-16_20h44.04.414,multiplicationStroop,2021.2.3,Win32,59.95203837,,,,,,,,,,,,,,,,,,,,,,,,,,,,,,,,,32,2.599,1,0,25,25,23,1,8,×,4,8 × 4,neutral,largerFirst,1.5,1.5,32,,,,,,,,
,,,,,,,,,,,,,,,829,2022-02-16_20h44.04.414,multiplicationStroop,2021.2.3,Win32,59.95203837,,,,,,,,,,,,,,,,,,,,,,,,,,,,,,,,,56,2.999,0,0,26,26,7,1,6,×,9,6 × 9,neutral,smallerFirst,1.5,1.5,54,,,,,,,,
,,,,,,,,,,,,,,,829,2022-02-16_20h44.04.414,multiplicationStroop,2021.2.3,Win32,59.95203837,,,,,,,,,,,,,,,,,,,,,,,,,,,,,,,,,21,1.614,1,0,27,27,8,1,3,×,7,3 × 7,neutral,smallerFirst,1.5,1.5,21,,,,,,,,
,,,,,,,,,,,,,,,829,2022-02-16_20h44.04.414,multiplicationStroop,2021.2.3,Win32,59.95203837,,,,,,,,,,,,,,,,,,,,,,,,,,,,,,,,,45,1.946,1,0,28,28,10,1,5,×,9,5 × 9,neutral,smallerFirst,1.5,1.5,45,,,,,,,,
,,,,,,,,,,,,,,,829,2022-02-16_20h44.04.414,multiplicationStroop,2021.2.3,Win32,59.95203837,,,,,,,,,,,,,,,,,,,,,,,,,,,,,,,,,18,1.798,1,0,29,29,18,1,9,×,2,9 × 2,neutral,largerFirst,1.5,1.5,18,,,,,,,,
,,,,,,,,,,,,,,,829,2022-02-16_20h44.04.414,multiplicationStroop,2021.2.3,Win32,59.95203837,,,,,,,,,,,,,,,,,,,,,,,,,,,,,,,,,2,1.314,0,0,30,30,28,1,2,×,2,2 × 2,neutral,tie,1.5,1.5,4,,,,,,,,
,,,,,,,,,,,,,,,829,2022-02-16_20h44.04.414,multiplicationStroop,2021.2.3,Win32,59.95203837,,,,,,,,,,,,,,,,,,,,,,,,,,,,,,,,,64,4.517,1,0,31,31,34,1,8,×,8,8 × 8,neutral,tie,1.5,1.5,64,,,,,,,,
,,,,,,,,,,,,,,,829,2022-02-16_20h44.04.414,multiplicationStroop,2021.2.3,Win32,59.95203837,,,,,,,,,,,,,,,,,,,,,,,,,,,,,,,,,30,2.161,1,0,32,32,19,1,6,×,5,6 × 5,neutral,largerFirst,1.5,1.5,30,,,,,,,,
,,,,,,,,,,,,,,,829,2022-02-16_20h44.04.414,multiplicationStroop,2021.2.3,Win32,59.95203837,,,,,,,,,,,,,,,,,,,,,,,,,,,,,,,,,56,3.916,1,0,33,33,9,1,7,×,8,7 × 8,neutral,smallerFirst,1.5,1.5,56,,,,,,,,
,,,,,,,,,,,,,,,829,2022-02-16_20h44.04.414,multiplicationStroop,2021.2.3,Win32,59.95203837,,,,,,,,,,,,,,,,,,,,,,,,,,,,,,,,,25,1.796,1,0,34,34,31,1,5,×,5,5 × 5,neutral,tie,1.5,1.5,25,,,,,,,,
,,,,,,,,,,,,,,,829,2022-02-16_20h44.04.414,multiplicationStroop,2021.2.3,Win32,59.95203837,,,,,,,,,,,,,,,,,,,,,,,,,,,,,,,,,8,1.678,1,0,35,35,3,1,2,×,4,2 × 4,neutral,smallerFirst,1.5,1.5,8,,,,,,,,
,,,,,,,,,,,,,,,829,2022-02-16_20h44.04.414,multiplicationStroop,2021.2.3,Win32,59.95203837,,,,,,,,,,,,,,,,,,,,,,,,,,,,,,,,,,,,,,,,,,,,,,,,,,0,2,2,1,1,stimulusFile/mult_blk2.xlsx,,
,,,,,,,,,,,,,,,829,2022-02-16_20h44.04.414,multiplicationStroop,2021.2.3,Win32,59.95203837,,,,,,,,,,,,,,,,,,,,,,,,,,,,,,,space,1.637,36,3.361,1,0,0,0,14,1,9,×,4,9 × 4,congruent,largerFirst,2,1,36,,,,,,,,
,,,,,,,,,,,,,,,829,2022-02-16_20h44.04.414,multiplicationStroop,2021.2.3,Win32,59.95203837,,,,,,,,,,,,,,,,,,,,,,,,,,,,,,,,,18,2.147,1,0,1,1,25,1,6,×,3,6 × 3,congruent,largerFirst,2,1,18,,,,,,,,
,,,,,,,,,,,,,,,829,2022-02-16_20h44.04.414,multiplicationStroop,2021.2.3,Win32,59.95203837,,,,,,,,,,,,,,,,,,,,,,,,,,,,,,,,,56,2.698,0,0,2,2,26,1,9,×,6,9 × 6,congruent,largerFirst,2,1,54,,,,,,,,
,,,,,,,,,,,,,,,829,2022-02-16_20h44.04.414,multiplicationStroop,2021.2.3,Win32,59.95203837,,,,,,,,,,,,,,,,,,,,,,,,,,,,,,,,,42,3.782,1,0,3,3,17,1,7,×,6,7 × 6,congruent,largerFirst,2,1,42,,,,,,,,
,,,,,,,,,,,,,,,829,2022-02-16_20h44.04.414,multiplicationStroop,2021.2.3,Win32,59.95203837,,,,,,,,,,,,,,,,,,,,,,,,,,,,,,,,,56,6.483,1,0,4,4,22,1,8,×,7,8 × 7,congruent,largerFirst,2,1,56,,,,,,,,
,,,,,,,,,,,,,,,829,2022-02-16_20h44.04.414,multiplicationStroop,2021.2.3,Win32,59.95203837,,,,,,,,,,,,,,,,,,,,,,,,,,,,,,,,,45,1.794,1,0,5,5,9,1,5,×,9,5 × 9,congruent,smallerFirst,1,2,45,,,,,,,,
,,,,,,,,,,,,,,,829,2022-02-16_20h44.04.414,multiplicationStroop,2021.2.3,Win32,59.95203837,,,,,,,,,,,,,,,,,,,,,,,,,,,,,,,,,10,2.063,1,0,6,6,10,1,2,×,5,2 × 5,congruent,smallerFirst,1,2,10,,,,,,,,
,,,,,,,,,,,,,,,829,2022-02-16_20h44.04.414,multiplicationStroop,2021.2.3,Win32,59.95203837,,,,,,,,,,,,,,,,,,,,,,,,,,,,,,,,,40,2.081,1,0,7,7,20,1,8,×,5,8 × 5,congruent,largerFirst,2,1,40,,,,,,,,
,,,,,,,,,,,,,,,829,2022-02-16_20h44.04.414,multiplicationStroop,2021.2.3,Win32,59.95203837,,,,,,,,,,,,,,,,,,,,,,,,,,,,,,,,,12,1.763,1,0,8,8,5,1,2,×,6,2 × 6,congruent,smallerFirst,1,2,12,,,,,,,,
,,,,,,,,,,,,,,,829,2022-02-16_20h44.04.414,multiplicationStroop,2021.2.3,Win32,59.95203837,,,,,,,,,,,,,,,,,,,,,,,,,,,,,,,,,27,2.515,1,0,9,9,12,1,3,×,9,3 × 9,congruent,smallerFirst,1,2,27,,,,,,,,
,,,,,,,,,,,,,,,829,2022-02-16_20h44.04.414,multiplicationStroop,2021.2.3,Win32,59.95203837,,,,,,,,,,,,,,,,,,,,,,,,,,,,,,,,,81,2.584,1,0,10,10,35,1,9,×,9,9 × 9,neutral,tie,1,2,81,,,,,,,,
,,,,,,,,,,,,,,,829,2022-02-16_20h44.04.414,multiplicationStroop,2021.2.3,Win32,59.95203837,,,,,,,,,,,,,,,,,,,,,,,,,,,,,,,,,15,1.796,1,0,11,11,18,1,5,×,3,5 × 3,congruent,largerFirst,2,1,15,,,,,,,,
,,,,,,,,,,,,,,,829,2022-02-16_20h44.04.414,multiplicationStroop,2021.2.3,Win32,59.95203837,,,,,,,,,,,,,,,,,,,,,,,,,,,,,,,,,28,2.065,1,0,12,12,13,1,4,×,7,4 × 7,congruent,smallerFirst,1,2,28,,,,,,,,
,,,,,,,,,,,,,,,829,2022-02-16_20h44.04.414,multiplicationStroop,2021.2.3,Win32,59.95203837,,,,,,,,,,,,,,,,,,,,,,,,,,,,,,,,,63,10.52,1,0,13,13,7,1,7,×,9,7 × 9,congruent,smallerFirst,1,2,63,,,,,,,,
,,,,,,,,,,,,,,,829,2022-02-16_20h44.04.414,multiplicationStroop,2021.2.3,Win32,59.95203837,,,,,,,,,,,,,,,,,,,,,,,,,,,,,,,,,18,1.914,1,0,14,14,8,1,2,×,9,2 × 9,congruent,smallerFirst,1,2,18,,,,,,,,
,,,,,,,,,,,,,,,829,2022-02-16_20h44.04.414,multiplicationStroop,2021.2.3,Win32,59.95203837,,,,,,,,,,,,,,,,,,,,,,,,,,,,,,,,,8,1.761,1,0,15,15,23,1,4,×,2,4 × 2,congruent,largerFirst,2,1,8,,,,,,,,
,,,,,,,,,,,,,,,829,2022-02-16_20h44.04.414,multiplicationStroop,2021.2.3,Win32,59.95203837,,,,,,,,,,,,,,,,,,,,,,,,,,,,,,,,,16,1.697,1,0,16,16,30,1,4,×,4,4 × 4,neutral,tie,1,2,16,,,,,,,,
,,,,,,,,,,,,,,,829,2022-02-16_20h44.04.414,multiplicationStroop,2021.2.3,Win32,59.95203837,,,,,,,,,,,,,,,,,,,,,,,,,,,,,,,,,14,2.05,1,0,17,17,0,1,2,×,7,2 × 7,congruent,smallerFirst,1,2,14,,,,,,,,
,,,,,,,,,,,,,,,829,2022-02-16_20h44.04.414,multiplicationStroop,2021.2.3,Win32,59.95203837,,,,,,,,,,,,,,,,,,,,,,,,,,,,,,,,,36,1.928,1,0,18,18,32,1,6,×,6,6 × 6,neutral,tie,1,2,36,,,,,,,,
,,,,,,,,,,,,,,,829,2022-02-16_20h44.04.414,multiplicationStroop,2021.2.3,Win32,59.95203837,,,,,,,,,,,,,,,,,,,,,,,,,,,,,,,,,48,5.366,1,0,19,19,4,1,6,×,8,6 × 8,congruent,smallerFirst,1,2,48,,,,,,,,
,,,,,,,,,,,,,,,829,2022-02-16_20h44.04.414,multiplicationStroop,2021.2.3,Win32,59.95203837,,,,,,,,,,,,,,,,,,,,,,,,,,,,,,,,,6,1.88,1,0,20,20,27,1,3,×,2,3 × 2,congruent,largerFirst,2,1,6,,,,,,,,
,,,,,,,,,,,,,,,829,2022-02-16_20h44.04.414,multiplicationStroop,2021.2.3,Win32,59.95203837,,,,,,,,,,,,,,,,,,,,,,,,,,,,,,,,,24,2.249,1,0,21,21,11,1,4,×,6,4 × 6,congruent,smallerFirst,1,2,24,,,,,,,,
,,,,,,,,,,,,,,,829,2022-02-16_20h44.04.414,multiplicationStroop,2021.2.3,Win32,59.95203837,,,,,,,,,,,,,,,,,,,,,,,,,,,,,,,,,64,5.102,1,0,22,22,34,1,8,×,8,8 × 8,neutral,tie,1,2,64,,,,,,,,
,,,,,,,,,,,,,,,829,2022-02-16_20h44.04.414,multiplicationStroop,2021.2.3,Win32,59.95203837,,,,,,,,,,,,,,,,,,,,,,,,,,,,,,,,,9,1.73,1,0,23,23,29,1,3,×,3,3 × 3,neutral,tie,1,2,9,,,,,,,,
,,,,,,,,,,,,,,,829,2022-02-16_20h44.04.414,multiplicationStroop,2021.2.3,Win32,59.95203837,,,,,,,,,,,,,,,,,,,,,,,,,,,,,,,,,4,1.597,1,0,24,24,28,1,2,×,2,2 × 2,neutral,tie,1,2,4,,,,,,,,
,,,,,,,,,,,,,,,829,2022-02-16_20h44.04.414,multiplicationStroop,2021.2.3,Win32,59.95203837,,,,,,,,,,,,,,,,,,,,,,,,,,,,,,,,,30,2.1,1,0,25,25,1,1,5,×,6,5 × 6,congruent,smallerFirst,1,2,30,,,,,,,,
,,,,,,,,,,,,,,,829,2022-02-16_20h44.04.414,multiplicationStroop,2021.2.3,Win32,59.95203837,,,,,,,,,,,,,,,,,,,,,,,,,,,,,,,,,21,1.731,1,0,26,26,2,1,3,×,7,3 × 7,congruent,smallerFirst,1,2,21,,,,,,,,
,,,,,,,,,,,,,,,829,2022-02-16_20h44.04.414,multiplicationStroop,2021.2.3,Win32,59.95203837,,,,,,,,,,,,,,,,,,,,,,,,,,,,,,,,,20,1.864,1,0,27,27,21,1,5,×,4,5 × 4,congruent,largerFirst,2,1,20,,,,,,,,
,,,,,,,,,,,,,,,829,2022-02-16_20h44.04.414,multiplicationStroop,2021.2.3,Win32,59.95203837,,,,,,,,,,,,,,,,,,,,,,,,,,,,,,,,,32,2.261,1,0,28,28,6,1,4,×,8,4 × 8,congruent,smallerFirst,1,2,32,,,,,,,,
,,,,,,,,,,,,,,,829,2022-02-16_20h44.04.414,multiplicationStroop,2021.2.3,Win32,59.95203837,,,,,,,,,,,,,,,,,,,,,,,,,,,,,,,,,63,2.747,0,0,29,29,3,1,8,×,9,8 × 9,congruent,smallerFirst,1,2,72,,,,,,,,
,,,,,,,,,,,,,,,829,2022-02-16_20h44.04.414,multiplicationStroop,2021.2.3,Win32,59.95203837,,,,,,,,,,,,,,,,,,,,,,,,,,,,,,,,,1,1.445,0,0,30,30,19,1,8,×,2,8 × 2,congruent,largerFirst,2,1,16,,,,,,,,
,,,,,,,,,,,,,,,829,2022-02-16_20h44.04.414,multiplicationStroop,2021.2.3,Win32,59.95203837,,,,,,,,,,,,,,,,,,,,,,,,,,,,,,,,,24,3.982,1,0,31,31,24,1,8,×,3,8 × 3,congruent,largerFirst,2,1,24,,,,,,,,
,,,,,,,,,,,,,,,829,2022-02-16_20h44.04.414,multiplicationStroop,2021.2.3,Win32,59.95203837,,,,,,,,,,,,,,,,,,,,,,,,,,,,,,,,,12,1.797,1,0,32,32,16,1,4,×,3,4 × 3,congruent,largerFirst,2,1,12,,,,,,,,
,,,,,,,,,,,,,,,829,2022-02-16_20h44.04.414,multiplicationStroop,2021.2.3,Win32,59.95203837,,,,,,,,,,,,,,,,,,,,,,,,,,,,,,,,,49,1.948,1,0,33,33,33,1,7,×,7,7 × 7,neutral,tie,1,2,49,,,,,,,,
,,,,,,,,,,,,,,,829,2022-02-16_20h44.04.414,multiplicationStroop,2021.2.3,Win32,59.95203837,,,,,,,,,,,,,,,,,,,,,,,,,,,,,,,,,45,1.932,0,0,34,34,15,1,7,×,5,7 × 5,congruent,largerFirst,2,1,35,,,,,,,,
,,,,,,,,,,,,,,,829,2022-02-16_20h44.04.414,multiplicationStroop,2021.2.3,Win32,59.95203837,,,,,,,,,,,,,,,,,,,,,,,,,,,,,,,,,25,2.231,1,0,35,35,31,1,5,×,5,5 × 5,neutral,tie,1,2,25,,,,,,,,
,,,,,,,,,,,,,,,829,2022-02-16_20h44.04.414,multiplicationStroop,2021.2.3,Win32,59.95203837,,,,,,,,,,,,,,,,,,,,,,,,,,,,,,,,,,,,,,,,,,,,,,,,,,0,3,3,3,1,stimulusFile/mult_blk4_congruent.xlsx,,
,,,,,,,,,,,,,,,829,2022-02-16_20h44.04.414,multiplicationStroop,2021.2.3,Win32,59.95203837,,,,,,,,,,,,,,,,,,,,,,,,,,,,,,,space,1.068,56,2.761,1,0,0,0,0,1,7,×,8,7 × 8,incongruent,smallerFirst,2,1,56,,,,,,,,
,,,,,,,,,,,,,,,829,2022-02-16_20h44.04.414,multiplicationStroop,2021.2.3,Win32,59.95203837,,,,,,,,,,,,,,,,,,,,,,,,,,,,,,,,,81,2.149,1,0,1,1,35,1,9,×,9,9 × 9,neutral,tie,2,1,81,,,,,,,,
,,,,,,,,,,,,,,,829,2022-02-16_20h44.04.414,multiplicationStroop,2021.2.3,Win32,59.95203837,,,,,,,,,,,,,,,,,,,,,,,,,,,,,,,,,12,1.699,1,0,2,2,5,1,2,×,6,2 × 6,incongruent,smallerFirst,2,1,12,,,,,,,,
,,,,,,,,,,,,,,,829,2022-02-16_20h44.04.414,multiplicationStroop,2021.2.3,Win32,59.95203837,,,,,,,,,,,,,,,,,,,,,,,,,,,,,,,,,48,4.716,1,0,3,3,15,1,8,×,6,8 × 6,incongruent,largerFirst,1,2,48,,,,,,,,
,,,,,,,,,,,,,,,829,2022-02-16_20h44.04.414,multiplicationStroop,2021.2.3,Win32,59.95203837,,,,,,,,,,,,,,,,,,,,,,,,,,,,,,,,,27,2.078,1,0,4,4,4,1,3,×,9,3 × 9,incongruent,smallerFirst,2,1,27,,,,,,,,
,,,,,,,,,,,,,,,829,2022-02-16_20h44.04.414,multiplicationStroop,2021.2.3,Win32,59.95203837,,,,,,,,,,,,,,,,,,,,,,,,,,,,,,,,,40,2.028,1,0,5,5,27,1,8,×,5,8 × 5,incongruent,largerFirst,1,2,40,,,,,,,,
,,,,,,,,,,,,,,,829,2022-02-16_20h44.04.414,multiplicationStroop,2021.2.3,Win32,59.95203837,,,,,,,,,,,,,,,,,,,,,,,,,,,,,,,,,25,1.763,1,0,6,6,31,1,5,×,5,5 × 5,neutral,tie,2,1,25,,,,,,,,
,,,,,,,,,,,,,,,829,2022-02-16_20h44.04.414,multiplicationStroop,2021.2.3,Win32,59.95203837,,,,,,,,,,,,,,,,,,,,,,,,,,,,,,,,,32,2.096,1,0,7,7,21,1,8,×,4,8 × 4,incongruent,largerFirst,1,2,32,,,,,,,,
,,,,,,,,,,,,,,,829,2022-02-16_20h44.04.414,multiplicationStroop,2021.2.3,Win32,59.95203837,,,,,,,,,,,,,,,,,,,,,,,,,,,,,,,,,36,1.999,1,0,8,8,32,1,6,×,6,6 × 6,neutral,tie,2,1,36,,,,,,,,
,,,,,,,,,,,,,,,829,2022-02-16_20h44.04.414,multiplicationStroop,2021.2.3,Win32,59.95203837,,,,,,,,,,,,,,,,,,,,,,,,,,,,,,,,,16,2.297,1,0,9,9,9,1,2,×,8,2 × 8,incongruent,smallerFirst,2,1,16,,,,,,,,
,,,,,,,,,,,,,,,829,2022-02-16_20h44.04.414,multiplicationStroop,2021.2.3,Win32,59.95203837,,,,,,,,,,,,,,,,,,,,,,,,,,,,,,,,,4,1.547,1,0,10,10,28,1,2,×,2,2 × 2,neutral,tie,2,1,4,,,,,,,,
,,,,,,,,,,,,,,,829,2022-02-16_20h44.04.414,multiplicationStroop,2021.2.3,Win32,59.95203837,,,,,,,,,,,,,,,,,,,,,,,,,,,,,,,,,12,1.698,1,0,11,11,19,1,4,×,3,4 × 3,incongruent,largerFirst,1,2,12,,,,,,,,
,,,,,,,,,,,,,,,829,2022-02-16_20h44.04.414,multiplicationStroop,2021.2.3,Win32,59.95203837,,,,,,,,,,,,,,,,,,,,,,,,,,,,,,,,,18,1.813,1,0,12,12,22,1,6,×,3,6 × 3,incongruent,largerFirst,1,2,18,,,,,,,,
,,,,,,,,,,,,,,,829,2022-02-16_20h44.04.414,multiplicationStroop,2021.2.3,Win32,59.95203837,,,,,,,,,,,,,,,,,,,,,,,,,,,,,,,,,6,1.995,1,0,13,13,25,1,3,×,2,3 × 2,incongruent,largerFirst,1,2,6,,,,,,,,
,,,,,,,,,,,,,,,829,2022-02-16_20h44.04.414,multiplicationStroop,2021.2.3,Win32,59.95203837,,,,,,,,,,,,,,,,,,,,,,,,,,,,,,,,,49,2.012,1,0,14,14,33,1,7,×,7,7 × 7,neutral,tie,2,1,49,,,,,,,,
,,,,,,,,,,,,,,,829,2022-02-16_20h44.04.414,multiplicationStroop,2021.2.3,Win32,59.95203837,,,,,,,,,,,,,,,,,,,,,,,,,,,,,,,,,21,1.896,1,0,15,15,12,1,3,×,7,3 × 7,incongruent,smallerFirst,2,1,21,,,,,,,,
,,,,,,,,,,,,,,,829,2022-02-16_20h44.04.414,multiplicationStroop,2021.2.3,Win32,59.95203837,,,,,,,,,,,,,,,,,,,,,,,,,,,,,,,,,24,1.932,1,0,16,16,6,1,4,×,6,4 × 6,incongruent,smallerFirst,2,1,24,,,,,,,,
,,,,,,,,,,,,,,,829,2022-02-16_20h44.04.414,multiplicationStroop,2021.2.3,Win32,59.95203837,,,,,,,,,,,,,,,,,,,,,,,,,,,,,,,,,9,1.683,1,0,17,17,29,1,3,×,3,3 × 3,neutral,tie,2,1,9,,,,,,,,
,,,,,,,,,,,,,,,829,2022-02-16_20h44.04.414,multiplicationStroop,2021.2.3,Win32,59.95203837,,,,,,,,,,,,,,,,,,,,,,,,,,,,,,,,,36,2.049,1,0,18,18,1,1,4,×,9,4 × 9,incongruent,smallerFirst,2,1,36,,,,,,,,
,,,,,,,,,,,,,,,829,2022-02-16_20h44.04.414,multiplicationStroop,2021.2.3,Win32,59.95203837,,,,,,,,,,,,,,,,,,,,,,,,,,,,,,,,,63,8.165,1,0,19,19,17,1,9,×,7,9 × 7,incongruent,largerFirst,1,2,63,,,,,,,,
,,,,,,,,,,,,,,,829,2022-02-16_20h44.04.414,multiplicationStroop,2021.2.3,Win32,59.95203837,,,,,,,,,,,,,,,,,,,,,,,,,,,,,,,,,16,2.262,1,0,20,20,30,1,4,×,4,4 × 4,neutral,tie,2,1,16,,,,,,,,
,,,,,,,,,,,,,,,829,2022-02-16_20h44.04.414,multiplicationStroop,2021.2.3,Win32,59.95203837,,,,,,,,,,,,,,,,,,,,,,,,,,,,,,,,,72,3.396,1,0,21,21,14,1,9,×,8,9 × 8,incongruent,largerFirst,1,2,72,,,,,,,,
,,,,,,,,,,,,,,,829,2022-02-16_20h44.04.414,multiplicationStroop,2021.2.3,Win32,59.95203837,,,,,,,,,,,,,,,,,,,,,,,,,,,,,,,,,28,2.279,1,0,22,22,2,1,4,×,7,4 × 7,incongruent,smallerFirst,2,1,28,,,,,,,,
,,,,,,,,,,,,,,,829,2022-02-16_20h44.04.414,multiplicationStroop,2021.2.3,Win32,59.95203837,,,,,,,,,,,,,,,,,,,,,,,,,,,,,,,,,8,2.131,1,0,23,23,10,1,2,×,4,2 × 4,incongruent,smallerFirst,2,1,8,,,,,,,,
,,,,,,,,,,,,,,,829,2022-02-16_20h44.04.414,multiplicationStroop,2021.2.3,Win32,59.95203837,,,,,,,,,,,,,,,,,,,,,,,,,,,,,,,,,64,2.314,1,0,24,24,34,1,8,×,8,8 × 8,neutral,tie,2,1,64,,,,,,,,
,,,,,,,,,,,,,,,829,2022-02-16_20h44.04.414,multiplicationStroop,2021.2.3,Win32,59.95203837,,,,,,,,,,,,,,,,,,,,,,,,,,,,,,,,,10,2.098,1,0,25,25,7,1,2,×,5,2 × 5,incongruent,smallerFirst,2,1,10,,,,,,,,
,,,,,,,,,,,,,,,829,2022-02-16_20h44.04.414,multiplicationStroop,2021.2.3,Win32,59.95203837,,,,,,,,,,,,,,,,,,,,,,,,,,,,,,,,,20,1.849,1,0,26,26,13,1,4,×,5,4 × 5,incongruent,smallerFirst,2,1,20,,,,,,,,
,,,,,,,,,,,,,,,829,2022-02-16_20h44.04.414,multiplicationStroop,2021.2.3,Win32,59.95203837,,,,,,,,,,,,,,,,,,,,,,,,,,,,,,,,,45,1.898,1,0,27,27,8,1,5,×,9,5 × 9,incongruent,smallerFirst,2,1,45,,,,,,,,
,,,,,,,,,,,,,,,829,2022-02-16_20h44.04.414,multiplicationStroop,2021.2.3,Win32,59.95203837,,,,,,,,,,,,,,,,,,,,,,,,,,,,,,,,,14,1.681,1,0,28,28,18,1,7,×,2,7 × 2,incongruent,largerFirst,1,2,14,,,,,,,,
,,,,,,,,,,,,,,,829,2022-02-16_20h44.04.414,multiplicationStroop,2021.2.3,Win32,59.95203837,,,,,,,,,,,,,,,,,,,,,,,,,,,,,,,,,18,1.712,1,0,29,29,16,1,9,×,2,9 × 2,incongruent,largerFirst,1,2,18,,,,,,,,
,,,,,,,,,,,,,,,829,2022-02-16_20h44.04.414,multiplicationStroop,2021.2.3,Win32,59.95203837,,,,,,,,,,,,,,,,,,,,,,,,,,,,,,,,,15,1.664,1,0,30,30,24,1,5,×,3,5 × 3,incongruent,largerFirst,1,2,15,,,,,,,,
,,,,,,,,,,,,,,,829,2022-02-16_20h44.04.414,multiplicationStroop,2021.2.3,Win32,59.95203837,,,,,,,,,,,,,,,,,,,,,,,,,,,,,,,,,52,5.182,0,0,31,31,3,1,6,×,7,6 × 7,incongruent,smallerFirst,2,1,42,,,,,,,,
,,,,,,,,,,,,,,,829,2022-02-16_20h44.04.414,multiplicationStroop,2021.2.3,Win32,59.95203837,,,,,,,,,,,,,,,,,,,,,,,,,,,,,,,,,35,2.179,1,0,32,32,26,1,7,×,5,7 × 5,incongruent,largerFirst,1,2,35,,,,,,,,
,,,,,,,,,,,,,,,829,2022-02-16_20h44.04.414,multiplicationStroop,2021.2.3,Win32,59.95203837,,,,,,,,,,,,,,,,,,,,,,,,,,,,,,,,,30,1.964,1,0,33,33,11,1,5,×,6,5 × 6,incongruent,smallerFirst,2,1,30,,,,,,,,
,,,,,,,,,,,,,,,829,2022-02-16_20h44.04.414,multiplicationStroop,2021.2.3,Win32,59.95203837,,,,,,,,,,,,,,,,,,,,,,,,,,,,,,,,,24,1.813,1,0,34,34,23,1,8,×,3,8 × 3,incongruent,largerFirst,1,2,24,,,,,,,,
,,,,,,,,,,,,,,,829,2022-02-16_20h44.04.414,multiplicationStroop,2021.2.3,Win32,59.95203837,,,,,,,,,,,,,,,,,,,,,,,,,,,,,,,,,56,2.765,0,0,35,35,20,1,9,×,6,9 × 6,incongruent,largerFirst,1,2,54,,,,,,,,
,,,,,,,,,,,,,,,829,2022-02-16_20h44.04.414,multiplicationStroop,2021.2.3,Win32,59.95203837,,,,,,,,,,,,,,,,,,,,,,,,,,,,,,,,,,,,,,,,,,,,,,,,,,0,4,4,4,1,stimulusFile/mult_blk5_INcongruent.xlsx,,
,,,,,,,,,,,,,,,829,2022-02-16_20h44.04.414,multiplicationStroop,2021.2.3,Win32,59.95203837,,,,,,,,,,,,,,,,,,,,,,,,,,,,,,,space,1.231,25,1.807,1,0,0,0,31,1,5,×,5,5 × 5,neutral,tie,1.5,1.5,25,,,,,,,,
,,,,,,,,,,,,,,,829,2022-02-16_20h44.04.414,multiplicationStroop,2021.2.3,Win32,59.95203837,,,,,,,,,,,,,,,,,,,,,,,,,,,,,,,,,9,1.565,1,0,1,1,29,1,3,×,3,3 × 3,neutral,tie,1.5,1.5,9,,,,,,,,
,,,,,,,,,,,,,,,829,2022-02-16_20h44.04.414,multiplicationStroop,2021.2.3,Win32,59.95203837,,,,,,,,,,,,,,,,,,,,,,,,,,,,,,,,,12,1.73,1,0,2,2,7,1,3,×,4,3 × 4,neutral,smallerFirst,1.5,1.5,12,,,,,,,,
,,,,,,,,,,,,,,,829,2022-02-16_20h44.04.414,multiplicationStroop,2021.2.3,Win32,59.95203837,,,,,,,,,,,,,,,,,,,,,,,,,,,,,,,,,35,2.046,1,0,3,3,15,1,7,×,5,7 × 5,neutral,largerFirst,1.5,1.5,35,,,,,,,,
,,,,,,,,,,,,,,,829,2022-02-16_20h44.04.414,multiplicationStroop,2021.2.3,Win32,59.95203837,,,,,,,,,,,,,,,,,,,,,,,,,,,,,,,,,81,2.313,1,0,4,4,35,1,9,×,9,9 × 9,neutral,tie,1.5,1.5,81,,,,,,,,
,,,,,,,,,,,,,,,829,2022-02-16_20h44.04.414,multiplicationStroop,2021.2.3,Win32,59.95203837,,,,,,,,,,,,,,,,,,,,,,,,,,,,,,,,,10,1.717,1,0,5,5,18,1,5,×,2,5 × 2,neutral,largerFirst,1.5,1.5,10,,,,,,,,
,,,,,,,,,,,,,,,829,2022-02-16_20h44.04.414,multiplicationStroop,2021.2.3,Win32,59.95203837,,,,,,,,,,,,,,,,,,,,,,,,,,,,,,,,,40,2.364,1,0,6,6,10,1,5,×,8,5 × 8,neutral,smallerFirst,1.5,1.5,40,,,,,,,,
,,,,,,,,,,,,,,,829,2022-02-16_20h44.04.414,multiplicationStroop,2021.2.3,Win32,59.95203837,,,,,,,,,,,,,,,,,,,,,,,,,,,,,,,,,48,4.333,1,0,7,7,1,1,6,×,8,6 × 8,neutral,smallerFirst,1.5,1.5,48,,,,,,,,
,,,,,,,,,,,,,,,829,2022-02-16_20h44.04.414,multiplicationStroop,2021.2.3,Win32,59.95203837,,,,,,,,,,,,,,,,,,,,,,,,,,,,,,,,,4,1.995,1,0,8,8,28,1,2,×,2,2 × 2,neutral,tie,1.5,1.5,4,,,,,,,,
,,,,,,,,,,,,,,,829,2022-02-16_20h44.04.414,multiplicationStroop,2021.2.3,Win32,59.95203837,,,,,,,,,,,,,,,,,,,,,,,,,,,,,,,,,63,5.114,1,0,9,9,26,1,9,×,7,9 × 7,neutral,largerFirst,1.5,1.5,63,,,,,,,,
,,,,,,,,,,,,,,,829,2022-02-16_20h44.04.414,multiplicationStroop,2021.2.3,Win32,59.95203837,,,,,,,,,,,,,,,,,,,,,,,,,,,,,,,,,56,2.679,0,0,10,10,21,1,9,×,6,9 × 6,neutral,largerFirst,1.5,1.5,54,,,,,,,,
,,,,,,,,,,,,,,,829,2022-02-16_20h44.04.414,multiplicationStroop,2021.2.3,Win32,59.95203837,,,,,,,,,,,,,,,,,,,,,,,,,,,,,,,,,21,1.68,1,0,11,11,22,1,7,×,3,7 × 3,neutral,largerFirst,1.5,1.5,21,,,,,,,,
,,,,,,,,,,,,,,,829,2022-02-16_20h44.04.414,multiplicationStroop,2021.2.3,Win32,59.95203837,,,,,,,,,,,,,,,,,,,,,,,,,,,,,,,,,14,1.68,1,0,12,12,2,1,2,×,7,2 × 7,neutral,smallerFirst,1.5,1.5,14,,,,,,,,
,,,,,,,,,,,,,,,829,2022-02-16_20h44.04.414,multiplicationStroop,2021.2.3,Win32,59.95203837,,,,,,,,,,,,,,,,,,,,,,,,,,,,,,,,,49,2.065,1,0,13,13,33,1,7,×,7,7 × 7,neutral,tie,1.5,1.5,49,,,,,,,,
,,,,,,,,,,,,,,,829,2022-02-16_20h44.04.414,multiplicationStroop,2021.2.3,Win32,59.95203837,,,,,,,,,,,,,,,,,,,,,,,,,,,,,,,,,25,1.815,0,0,14,14,16,1,6,×,4,6 × 4,neutral,largerFirst,1.5,1.5,24,,,,,,,,
,,,,,,,,,,,,,,,829,2022-02-16_20h44.04.414,multiplicationStroop,2021.2.3,Win32,59.95203837,,,,,,,,,,,,,,,,,,,,,,,,,,,,,,,,,36,2.715,1,0,15,15,13,1,4,×,9,4 × 9,neutral,smallerFirst,1.5,1.5,36,,,,,,,,
,,,,,,,,,,,,,,,829,2022-02-16_20h44.04.414,multiplicationStroop,2021.2.3,Win32,59.95203837,,,,,,,,,,,,,,,,,,,,,,,,,,,,,,,,,63,3.183,0,0,16,16,25,1,9,×,8,9 × 8,neutral,largerFirst,1.5,1.5,72,,,,,,,,
,,,,,,,,,,,,,,,829,2022-02-16_20h44.04.414,multiplicationStroop,2021.2.3,Win32,59.95203837,,,,,,,,,,,,,,,,,,,,,,,,,,,,,,,,,30,2.031,1,0,17,17,5,1,5,×,6,5 × 6,neutral,smallerFirst,1.5,1.5,30,,,,,,,,
,,,,,,,,,,,,,,,829,2022-02-16_20h44.04.414,multiplicationStroop,2021.2.3,Win32,59.95203837,,,,,,,,,,,,,,,,,,,,,,,,,,,,,,,,,64,2.63,1,0,18,18,34,1,8,×,8,8 × 8,neutral,tie,1.5,1.5,64,,,,,,,,
,,,,,,,,,,,,,,,829,2022-02-16_20h44.04.414,multiplicationStroop,2021.2.3,Win32,59.95203837,,,,,,,,,,,,,,,,,,,,,,,,,,,,,,,,,45,1.814,1,0,19,19,24,1,9,×,5,9 × 5,neutral,largerFirst,1.5,1.5,45,,,,,,,,
,,,,,,,,,,,,,,,829,2022-02-16_20h44.04.414,multiplicationStroop,2021.2.3,Win32,59.95203837,,,,,,,,,,,,,,,,,,,,,,,,,,,,,,,,,27,2.213,1,0,20,20,0,1,3,×,9,3 × 9,neutral,smallerFirst,1.5,1.5,27,,,,,,,,
,,,,,,,,,,,,,,,829,2022-02-16_20h44.04.414,multiplicationStroop,2021.2.3,Win32,59.95203837,,,,,,,,,,,,,,,,,,,,,,,,,,,,,,,,,12,1.746,1,0,21,21,11,1,2,×,6,2 × 6,neutral,smallerFirst,1.5,1.5,12,,,,,,,,
,,,,,,,,,,,,,,,829,2022-02-16_20h44.04.414,multiplicationStroop,2021.2.3,Win32,59.95203837,,,,,,,,,,,,,,,,,,,,,,,,,,,,,,,,,16,2.463,1,0,22,22,30,1,4,×,4,4 × 4,neutral,tie,1.5,1.5,16,,,,,,,,
,,,,,,,,,,,,,,,829,2022-02-16_20h44.04.414,multiplicationStroop,2021.2.3,Win32,59.95203837,,,,,,,,,,,,,,,,,,,,,,,,,,,,,,,,,28,2.312,1,0,23,23,3,1,4,×,7,4 × 7,neutral,smallerFirst,1.5,1.5,28,,,,,,,,
,,,,,,,,,,,,,,,829,2022-02-16_20h44.04.414,multiplicationStroop,2021.2.3,Win32,59.95203837,,,,,,,,,,,,,,,,,,,,,,,,,,,,,,,,,24,2.131,1,0,24,24,8,1,3,×,8,3 × 8,neutral,smallerFirst,1.5,1.5,24,,,,,,,,
,,,,,,,,,,,,,,,829,2022-02-16_20h44.04.414,multiplicationStroop,2021.2.3,Win32,59.95203837,,,,,,,,,,,,,,,,,,,,,,,,,,,,,,,,,56,11.335,1,0,25,25,23,1,8,×,7,8 × 7,neutral,largerFirst,1.5,1.5,56,,,,,,,,
,,,,,,,,,,,,,,,829,2022-02-16_20h44.04.414,multiplicationStroop,2021.2.3,Win32,59.95203837,,,,,,,,,,,,,,,,,,,,,,,,,,,,,,,,,15,1.863,1,0,26,26,19,1,5,×,3,5 × 3,neutral,largerFirst,1.5,1.5,15,,,,,,,,
,,,,,,,,,,,,,,,829,2022-02-16_20h44.04.414,multiplicationStroop,2021.2.3,Win32,59.95203837,,,,,,,,,,,,,,,,,,,,,,,,,,,,,,,,,8,1.815,1,0,27,27,17,1,4,×,2,4 × 2,neutral,largerFirst,1.5,1.5,8,,,,,,,,
,,,,,,,,,,,,,,,829,2022-02-16_20h44.04.414,multiplicationStroop,2021.2.3,Win32,59.95203837,,,,,,,,,,,,,,,,,,,,,,,,,,,,,,,,,6,1.681,1,0,28,28,12,1,2,×,3,2 × 3,neutral,smallerFirst,1.5,1.5,6,,,,,,,,
,,,,,,,,,,,,,,,829,2022-02-16_20h44.04.414,multiplicationStroop,2021.2.3,Win32,59.95203837,,,,,,,,,,,,,,,,,,,,,,,,,,,,,,,,,56,5.735,0,0,29,29,20,1,7,×,6,7 × 6,neutral,largerFirst,1.5,1.5,42,,,,,,,,
,,,,,,,,,,,,,,,829,2022-02-16_20h44.04.414,multiplicationStroop,2021.2.3,Win32,59.95203837,,,,,,,,,,,,,,,,,,,,,,,,,,,,,,,,,32,2.894,1,0,30,30,9,1,4,×,8,4 × 8,neutral,smallerFirst,1.5,1.5,32,,,,,,,,
,,,,,,,,,,,,,,,829,2022-02-16_20h44.04.414,multiplicationStroop,2021.2.3,Win32,59.95203837,,,,,,,,,,,,,,,,,,,,,,,,,,,,,,,,,18,1.794,1,0,31,31,14,1,6,×,3,6 × 3,neutral,largerFirst,1.5,1.5,18,,,,,,,,
,,,,,,,,,,,,,,,829,2022-02-16_20h44.04.414,multiplicationStroop,2021.2.3,Win32,59.95203837,,,,,,,,,,,,,,,,,,,,,,,,,,,,,,,,,18,2.097,1,0,32,32,4,1,2,×,9,2 × 9,neutral,smallerFirst,1.5,1.5,18,,,,,,,,
,,,,,,,,,,,,,,,829,2022-02-16_20h44.04.414,multiplicationStroop,2021.2.3,Win32,59.95203837,,,,,,,,,,,,,,,,,,,,,,,,,,,,,,,,,20,1.829,1,0,33,33,6,1,4,×,5,4 × 5,neutral,smallerFirst,1.5,1.5,20,,,,,,,,
,,,,,,,,,,,,,,,829,2022-02-16_20h44.04.414,multiplicationStroop,2021.2.3,Win32,59.95203837,,,,,,,,,,,,,,,,,,,,,,,,,,,,,,,,,16,1.847,1,0,34,34,27,1,8,×,2,8 × 2,neutral,largerFirst,1.5,1.5,16,,,,,,,,
,,,,,,,,,,,,,,,829,2022-02-16_20h44.04.414,multiplicationStroop,2021.2.3,Win32,59.95203837,,,,,,,,,,,,,,,,,,,,,,,,,,,,,,,,,36,1.863,1,0,35,35,32,1,6,×,6,6 × 6,neutral,tie,1.5,1.5,36,,,,,,,,
,,,,,,,,,,,,,,,829,2022-02-16_20h44.04.414,multiplicationStroop,2021.2.3,Win32,59.95203837,,,,,,,,,,,,,,,,,,,,,,,,,,,,,,,,,,,,,,,,,,,,,,,,,,0,5,5,0,1,stimulusFile/mult_blk1.xlsx,,
,,,,,,,,,,,,,,,829,2022-02-16_20h44.04.414,multiplicationStroop,2021.2.3,Win32,59.95203837,,,,,,,,,,,,,,,,,,,,,,,,,,,,,,,,,,,,,,,,,,,,,,,,,,,,,,,,space,6.602