welcomeKey_resp.keys,welcomeKey_resp.rt,X Scale,Y Scale,rt_resp_4.keys,rt_resp_4.corr,rt_resp_4.rt,speedtest_2.thisRepN,speedtest_2.thisTrialN,speedtest_2.thisN,speedtest_2.thisIndex,speedtest_2.ran,numberSc,posX,positionLayout,participant,date,expName,psychopyVersion,OS,frameRate,ct_instrresp.keys,ct_instrresp.rt,key_resp_2.keys,key_resp_2.rt,ct_keyResp.keys,ct_keyResp.corr,ct_keyResp.rt,trials.thisRepN,trials.thisTrialN,trials.thisN,trials.thisIndex,trials.ran,leftNo,rightNo,displayProblem,numDistance,leftNo_size,rightNo_size,Dims,keyAnswer,TS_Loop.thisRepN,TS_Loop.thisTrialN,TS_Loop.thisN,TS_Loop.thisIndex,TS_Loop.ran,Condition,ActionInst,instrImage,mltptaskInst_resp.keys,mltptaskInst_resp.rt,continue_resp_2.keys,continue_resp_2.rt,multp_Answer,multi_RT,multiplyCorr,LoopingMultiply.thisRepN,LoopingMultiply.thisTrialN,LoopingMultiply.thisN,LoopingMultiply.thisIndex,LoopingMultiply.ran,factor1,multiplySign,factor2,multliplyProblem,physicalSize,orderOperand,sizeF1,sizeF2,mult_answer,trials_stroop.thisRepN,trials_stroop.thisTrialN,trials_stroop.thisN,trials_stroop.thisIndex,trials_stroop.ran,multiplicationFile,esckey_resp_2.keys,esckey_resp_2.rt
y,7.1359,60,40,left,1,2.5225,0,0,0,4,1,6,-200,left,830,2022-01-13_16h26.58.341,multiplicationStroop,2021.2.3,Win32,60.13229104,,,,,,,,,,,,,,,,,,,,,,,,,,,,,,,,,,,,,,,,,,,,,,,,,,,,,,,,,
,,,,right,1,0.4005,0,1,1,15,1,9,200,right,830,2022-01-13_16h26.58.341,multiplicationStroop,2021.2.3,Win32,60.13229104,,,,,,,,,,,,,,,,,,,,,,,,,,,,,,,,,,,,,,,,,,,,,,,,,,,,,,,,,
,,,,right,1,0.3996,0,2,2,10,1,3,200,right,830,2022-01-13_16h26.58.341,multiplicationStroop,2021.2.3,Win32,60.13229104,,,,,,,,,,,,,,,,,,,,,,,,,,,,,,,,,,,,,,,,,,,,,,,,,,,,,,,,,
,,,,left,1,0.3334,0,3,3,5,1,7,-200,left,830,2022-01-13_16h26.58.341,multiplicationStroop,2021.2.3,Win32,60.13229104,,,,,,,,,,,,,,,,,,,,,,,,,,,,,,,,,,,,,,,,,,,,,,,,,,,,,,,,,
,,,,right,1,0.3234,0,4,4,13,1,7,200,right,830,2022-01-13_16h26.58.341,multiplicationStroop,2021.2.3,Win32,60.13229104,,,,,,,,,,,,,,,,,,,,,,,,,,,,,,,,,,,,,,,,,,,,,,,,,,,,,,,,,
,,,,left,1,0.3219,0,5,5,7,1,9,-200,left,830,2022-01-13_16h26.58.341,multiplicationStroop,2021.2.3,Win32,60.13229104,,,,,,,,,,,,,,,,,,,,,,,,,,,,,,,,,,,,,,,,,,,,,,,,,,,,,,,,,
,,,,left,1,0.3674,0,6,6,2,1,3,-200,left,830,2022-01-13_16h26.58.341,multiplicationStroop,2021.2.3,Win32,60.13229104,,,,,,,,,,,,,,,,,,,,,,,,,,,,,,,,,,,,,,,,,,,,,,,,,,,,,,,,,
,,,,left,1,0.3591,0,7,7,1,1,2,-200,left,830,2022-01-13_16h26.58.341,multiplicationStroop,2021.2.3,Win32,60.13229104,,,,,,,,,,,,,,,,,,,,,,,,,,,,,,,,,,,,,,,,,,,,,,,,,,,,,,,,,
,,,,right,1,0.3547,0,8,8,14,1,8,200,right,830,2022-01-13_16h26.58.341,multiplicationStroop,2021.2.3,Win32,60.13229104,,,,,,,,,,,,,,,,,,,,,,,,,,,,,,,,,,,,,,,,,,,,,,,,,,,,,,,,,
,,,,right,1,0.3896,0,9,9,11,1,4,200,right,830,2022-01-13_16h26.58.341,multiplicationStroop,2021.2.3,Win32,60.13229104,,,,,,,,,,,,,,,,,,,,,,,,,,,,,,,,,,,,,,,,,,,,,,,,,,,,,,,,,
,,,,right,1,0.3524,0,10,10,9,1,2,200,right,830,2022-01-13_16h26.58.341,multiplicationStroop,2021.2.3,Win32,60.13229104,,,,,,,,,,,,,,,,,,,,,,,,,,,,,,,,,,,,,,,,,,,,,,,,,,,,,,,,,
,,,,right,1,0.321,0,11,11,12,1,6,200,right,830,2022-01-13_16h26.58.341,multiplicationStroop,2021.2.3,Win32,60.13229104,,,,,,,,,,,,,,,,,,,,,,,,,,,,,,,,,,,,,,,,,,,,,,,,,,,,,,,,,
,,,,left,1,0.3363,0,12,12,6,1,8,-200,left,830,2022-01-13_16h26.58.341,multiplicationStroop,2021.2.3,Win32,60.13229104,,,,,,,,,,,,,,,,,,,,,,,,,,,,,,,,,,,,,,,,,,,,,,,,,,,,,,,,,
,,,,left,1,0.3866,0,13,13,3,1,4,-200,left,830,2022-01-13_16h26.58.341,multiplicationStroop,2021.2.3,Win32,60.13229104,,,,,,,,,,,,,,,,,,,,,,,,,,,,,,,,,,,,,,,,,,,,,,,,,,,,,,,,,
,,,,right,1,0.3374,0,14,14,8,1,1,200,right,830,2022-01-13_16h26.58.341,multiplicationStroop,2021.2.3,Win32,60.13229104,,,,,,,,,,,,,,,,,,,,,,,,,,,,,,,,,,,,,,,,,,,,,,,,,,,,,,,,,
,,,,left,1,0.3101,0,15,15,0,1,1,-200,left,830,2022-01-13_16h26.58.341,multiplicationStroop,2021.2.3,Win32,60.13229104,,,,,,,,,,,,,,,,,,,,,,,,,,,,,,,,,,,,,,,,,,,,,,,,,,,,,,,,,
,,,,right,1,0.4262,1,0,16,14,1,8,200,right,830,2022-01-13_16h26.58.341,multiplicationStroop,2021.2.3,Win32,60.13229104,,,,,,,,,,,,,,,,,,,,,,,,,,,,,,,,,,,,,,,,,,,,,,,,,,,,,,,,,
,,,,left,1,0.3238,1,1,17,2,1,3,-200,left,830,2022-01-13_16h26.58.341,multiplicationStroop,2021.2.3,Win32,60.13229104,,,,,,,,,,,,,,,,,,,,,,,,,,,,,,,,,,,,,,,,,,,,,,,,,,,,,,,,,
,,,,left,1,0.3661,1,2,18,0,1,1,-200,left,830,2022-01-13_16h26.58.341,multiplicationStroop,2021.2.3,Win32,60.13229104,,,,,,,,,,,,,,,,,,,,,,,,,,,,,,,,,,,,,,,,,,,,,,,,,,,,,,,,,
,,,,left,1,0.3516,1,3,19,1,1,2,-200,left,830,2022-01-13_16h26.58.341,multiplicationStroop,2021.2.3,Win32,60.13229104,,,,,,,,,,,,,,,,,,,,,,,,,,,,,,,,,,,,,,,,,,,,,,,,,,,,,,,,,
,,,,right,1,0.3348,1,4,20,11,1,4,200,right,830,2022-01-13_16h26.58.341,multiplicationStroop,2021.2.3,Win32,60.13229104,,,,,,,,,,,,,,,,,,,,,,,,,,,,,,,,,,,,,,,,,,,,,,,,,,,,,,,,,
,,,,right,1,0.5269,1,5,21,15,1,9,200,right,830,2022-01-13_16h26.58.341,multiplicationStroop,2021.2.3,Win32,60.13229104,,,,,,,,,,,,,,,,,,,,,,,,,,,,,,,,,,,,,,,,,,,,,,,,,,,,,,,,,
,,,,right,1,0.3844,1,6,22,13,1,7,200,right,830,2022-01-13_16h26.58.341,multiplicationStroop,2021.2.3,Win32,60.13229104,,,,,,,,,,,,,,,,,,,,,,,,,,,,,,,,,,,,,,,,,,,,,,,,,,,,,,,,,
,,,,right,1,0.3183,1,7,23,10,1,3,200,right,830,2022-01-13_16h26.58.341,multiplicationStroop,2021.2.3,Win32,60.13229104,,,,,,,,,,,,,,,,,,,,,,,,,,,,,,,,,,,,,,,,,,,,,,,,,,,,,,,,,
,,,,right,1,0.3439,1,8,24,8,1,1,200,right,830,2022-01-13_16h26.58.341,multiplicationStroop,2021.2.3,Win32,60.13229104,,,,,,,,,,,,,,,,,,,,,,,,,,,,,,,,,,,,,,,,,,,,,,,,,,,,,,,,,
,,,,right,1,0.4746,1,9,25,12,1,6,200,right,830,2022-01-13_16h26.58.341,multiplicationStroop,2021.2.3,Win32,60.13229104,,,,,,,,,,,,,,,,,,,,,,,,,,,,,,,,,,,,,,,,,,,,,,,,,,,,,,,,,
,,,,right,1,0.3389,1,10,26,9,1,2,200,right,830,2022-01-13_16h26.58.341,multiplicationStroop,2021.2.3,Win32,60.13229104,,,,,,,,,,,,,,,,,,,,,,,,,,,,,,,,,,,,,,,,,,,,,,,,,,,,,,,,,
,,,,left,1,0.3684,1,11,27,6,1,8,-200,left,830,2022-01-13_16h26.58.341,multiplicationStroop,2021.2.3,Win32,60.13229104,,,,,,,,,,,,,,,,,,,,,,,,,,,,,,,,,,,,,,,,,,,,,,,,,,,,,,,,,
,,,,left,1,0.339,1,12,28,7,1,9,-200,left,830,2022-01-13_16h26.58.341,multiplicationStroop,2021.2.3,Win32,60.13229104,,,,,,,,,,,,,,,,,,,,,,,,,,,,,,,,,,,,,,,,,,,,,,,,,,,,,,,,,
,,,,left,1,0.3171,1,13,29,5,1,7,-200,left,830,2022-01-13_16h26.58.341,multiplicationStroop,2021.2.3,Win32,60.13229104,,,,,,,,,,,,,,,,,,,,,,,,,,,,,,,,,,,,,,,,,,,,,,,,,,,,,,,,,
,,,,left,1,0.3507,1,14,30,4,1,6,-200,left,830,2022-01-13_16h26.58.341,multiplicationStroop,2021.2.3,Win32,60.13229104,,,,,,,,,,,,,,,,,,,,,,,,,,,,,,,,,,,,,,,,,,,,,,,,,,,,,,,,,
,,,,left,1,0.3175,1,15,31,3,1,4,-200,left,830,2022-01-13_16h26.58.341,multiplicationStroop,2021.2.3,Win32,60.13229104,,,,,,,,,,,,,,,,,,,,,,,,,,,,,,,,,,,,,,,,,,,,,,,,,,,,,,,,,
,,,,left,1,0.2937,2,0,32,5,1,7,-200,left,830,2022-01-13_16h26.58.341,multiplicationStroop,2021.2.3,Win32,60.13229104,,,,,,,,,,,,,,,,,,,,,,,,,,,,,,,,,,,,,,,,,,,,,,,,,,,,,,,,,
,,,,left,1,0.3006,2,1,33,3,1,4,-200,left,830,2022-01-13_16h26.58.341,multiplicationStroop,2021.2.3,Win32,60.13229104,,,,,,,,,,,,,,,,,,,,,,,,,,,,,,,,,,,,,,,,,,,,,,,,,,,,,,,,,
,,,,right,1,0.3504,2,2,34,11,1,4,200,right,830,2022-01-13_16h26.58.341,multiplicationStroop,2021.2.3,Win32,60.13229104,,,,,,,,,,,,,,,,,,,,,,,,,,,,,,,,,,,,,,,,,,,,,,,,,,,,,,,,,
,,,,right,1,0.3265,2,3,35,15,1,9,200,right,830,2022-01-13_16h26.58.341,multiplicationStroop,2021.2.3,Win32,60.13229104,,,,,,,,,,,,,,,,,,,,,,,,,,,,,,,,,,,,,,,,,,,,,,,,,,,,,,,,,
,,,,left,1,0.3516,2,4,36,0,1,1,-200,left,830,2022-01-13_16h26.58.341,multiplicationStroop,2021.2.3,Win32,60.13229104,,,,,,,,,,,,,,,,,,,,,,,,,,,,,,,,,,,,,,,,,,,,,,,,,,,,,,,,,
,,,,right,1,0.3182,2,5,37,8,1,1,200,right,830,2022-01-13_16h26.58.341,multiplicationStroop,2021.2.3,Win32,60.13229104,,,,,,,,,,,,,,,,,,,,,,,,,,,,,,,,,,,,,,,,,,,,,,,,,,,,,,,,,
,,,,right,1,0.4401,2,6,38,12,1,6,200,right,830,2022-01-13_16h26.58.341,multiplicationStroop,2021.2.3,Win32,60.13229104,,,,,,,,,,,,,,,,,,,,,,,,,,,,,,,,,,,,,,,,,,,,,,,,,,,,,,,,,
,,,,right,1,0.3504,2,7,39,10,1,3,200,right,830,2022-01-13_16h26.58.341,multiplicationStroop,2021.2.3,Win32,60.13229104,,,,,,,,,,,,,,,,,,,,,,,,,,,,,,,,,,,,,,,,,,,,,,,,,,,,,,,,,
,,,,left,1,0.3345,2,8,40,2,1,3,-200,left,830,2022-01-13_16h26.58.341,multiplicationStroop,2021.2.3,Win32,60.13229104,,,,,,,,,,,,,,,,,,,,,,,,,,,,,,,,,,,,,,,,,,,,,,,,,,,,,,,,,
,,,,left,1,0.3216,2,9,41,1,1,2,-200,left,830,2022-01-13_16h26.58.341,multiplicationStroop,2021.2.3,Win32,60.13229104,,,,,,,,,,,,,,,,,,,,,,,,,,,,,,,,,,,,,,,,,,,,,,,,,,,,,,,,,
,,,,right,1,0.3173,2,10,42,13,1,7,200,right,830,2022-01-13_16h26.58.341,multiplicationStroop,2021.2.3,Win32,60.13229104,,,,,,,,,,,,,,,,,,,,,,,,,,,,,,,,,,,,,,,,,,,,,,,,,,,,,,,,,
,,,,left,1,0.3044,2,11,43,7,1,9,-200,left,830,2022-01-13_16h26.58.341,multiplicationStroop,2021.2.3,Win32,60.13229104,,,,,,,,,,,,,,,,,,,,,,,,,,,,,,,,,,,,,,,,,,,,,,,,,,,,,,,,,
,,,,left,1,0.4342,2,12,44,6,1,8,-200,left,830,2022-01-13_16h26.58.341,multiplicationStroop,2021.2.3,Win32,60.13229104,,,,,,,,,,,,,,,,,,,,,,,,,,,,,,,,,,,,,,,,,,,,,,,,,,,,,,,,,
,,,,right,1,0.2898,2,13,45,9,1,2,200,right,830,2022-01-13_16h26.58.341,multiplicationStroop,2021.2.3,Win32,60.13229104,,,,,,,,,,,,,,,,,,,,,,,,,,,,,,,,,,,,,,,,,,,,,,,,,,,,,,,,,
,,,,right,1,0.3433,2,14,46,14,1,8,200,right,830,2022-01-13_16h26.58.341,multiplicationStroop,2021.2.3,Win32,60.13229104,,,,,,,,,,,,,,,,,,,,,,,,,,,,,,,,,,,,,,,,,,,,,,,,,,,,,,,,,
,,,,left,1,0.3103,2,15,47,4,1,6,-200,left,830,2022-01-13_16h26.58.341,multiplicationStroop,2021.2.3,Win32,60.13229104,,,,,,,,,,,,,,,,,,,,,,,,,,,,,,,,,,,,,,,,,,,,,,,,,,,,,,,,,
,,,,right,1,0.2841,3,0,48,13,1,7,200,right,830,2022-01-13_16h26.58.341,multiplicationStroop,2021.2.3,Win32,60.13229104,,,,,,,,,,,,,,,,,,,,,,,,,,,,,,,,,,,,,,,,,,,,,,,,,,,,,,,,,
,,,,right,1,0.4529,3,1,49,9,1,2,200,right,830,2022-01-13_16h26.58.341,multiplicationStroop,2021.2.3,Win32,60.13229104,,,,,,,,,,,,,,,,,,,,,,,,,,,,,,,,,,,,,,,,,,,,,,,,,,,,,,,,,
,,,,right,1,0.3506,3,2,50,12,1,6,200,right,830,2022-01-13_16h26.58.341,multiplicationStroop,2021.2.3,Win32,60.13229104,,,,,,,,,,,,,,,,,,,,,,,,,,,,,,,,,,,,,,,,,,,,,,,,,,,,,,,,,
,,,,right,1,0.3932,3,3,51,10,1,3,200,right,830,2022-01-13_16h26.58.341,multiplicationStroop,2021.2.3,Win32,60.13229104,,,,,,,,,,,,,,,,,,,,,,,,,,,,,,,,,,,,,,,,,,,,,,,,,,,,,,,,,
,,,,left,1,0.3745,3,4,52,3,1,4,-200,left,830,2022-01-13_16h26.58.341,multiplicationStroop,2021.2.3,Win32,60.13229104,,,,,,,,,,,,,,,,,,,,,,,,,,,,,,,,,,,,,,,,,,,,,,,,,,,,,,,,,
,,,,right,1,0.2945,3,5,53,14,1,8,200,right,830,2022-01-13_16h26.58.341,multiplicationStroop,2021.2.3,Win32,60.13229104,,,,,,,,,,,,,,,,,,,,,,,,,,,,,,,,,,,,,,,,,,,,,,,,,,,,,,,,,
,,,,left,1,0.317,3,6,54,1,1,2,-200,left,830,2022-01-13_16h26.58.341,multiplicationStroop,2021.2.3,Win32,60.13229104,,,,,,,,,,,,,,,,,,,,,,,,,,,,,,,,,,,,,,,,,,,,,,,,,,,,,,,,,
,,,,left,1,0.354,3,7,55,4,1,6,-200,left,830,2022-01-13_16h26.58.341,multiplicationStroop,2021.2.3,Win32,60.13229104,,,,,,,,,,,,,,,,,,,,,,,,,,,,,,,,,,,,,,,,,,,,,,,,,,,,,,,,,
,,,,left,1,0.3881,3,8,56,2,1,3,-200,left,830,2022-01-13_16h26.58.341,multiplicationStroop,2021.2.3,Win32,60.13229104,,,,,,,,,,,,,,,,,,,,,,,,,,,,,,,,,,,,,,,,,,,,,,,,,,,,,,,,,
,,,,right,1,0.3114,3,9,57,11,1,4,200,right,830,2022-01-13_16h26.58.341,multiplicationStroop,2021.2.3,Win32,60.13229104,,,,,,,,,,,,,,,,,,,,,,,,,,,,,,,,,,,,,,,,,,,,,,,,,,,,,,,,,
,,,,left,1,0.3192,3,10,58,6,1,8,-200,left,830,2022-01-13_16h26.58.341,multiplicationStroop,2021.2.3,Win32,60.13229104,,,,,,,,,,,,,,,,,,,,,,,,,,,,,,,,,,,,,,,,,,,,,,,,,,,,,,,,,
,,,,left,1,0.4028,3,11,59,0,1,1,-200,left,830,2022-01-13_16h26.58.341,multiplicationStroop,2021.2.3,Win32,60.13229104,,,,,,,,,,,,,,,,,,,,,,,,,,,,,,,,,,,,,,,,,,,,,,,,,,,,,,,,,
,,,,left,1,0.3184,3,12,60,5,1,7,-200,left,830,2022-01-13_16h26.58.341,multiplicationStroop,2021.2.3,Win32,60.13229104,,,,,,,,,,,,,,,,,,,,,,,,,,,,,,,,,,,,,,,,,,,,,,,,,,,,,,,,,
,,,,right,1,0.3183,3,13,61,8,1,1,200,right,830,2022-01-13_16h26.58.341,multiplicationStroop,2021.2.3,Win32,60.13229104,,,,,,,,,,,,,,,,,,,,,,,,,,,,,,,,,,,,,,,,,,,,,,,,,,,,,,,,,
,,,,left,1,0.438,3,14,62,7,1,9,-200,left,830,2022-01-13_16h26.58.341,multiplicationStroop,2021.2.3,Win32,60.13229104,,,,,,,,,,,,,,,,,,,,,,,,,,,,,,,,,,,,,,,,,,,,,,,,,,,,,,,,,
,,,,right,1,0.3235,3,15,63,15,1,9,200,right,830,2022-01-13_16h26.58.341,multiplicationStroop,2021.2.3,Win32,60.13229104,,,,,,,,,,,,,,,,,,,,,,,,,,,,,,,,,,,,,,,,,,,,,,,,,,,,,,,,,
,,,,,,,,,,,,,,,830,2022-01-13_16h26.58.341,multiplicationStroop,2021.2.3,Win32,60.13229104,space,8.5483,space,8.6512,left,1,0.7665,0,0,0,20,1,6,1,6 | 1,5,1.9756,1.4111,congruent,left,,,,,,stimulusFile/magnitude.xlsx,,,,,,,,,,,,,,,,,,,,,,,,,,,,,,,
,,,,,,,,,,,,,,,830,2022-01-13_16h26.58.341,multiplicationStroop,2021.2.3,Win32,60.13229104,,,,,left,1,0.553,0,1,1,61,1,4,2,4 | 2,2,1.6933,1.6933,neutral,left,,,,,,stimulusFile/magnitude.xlsx,,,,,,,,,,,,,,,,,,,,,,,,,,,,,,,
,,,,,,,,,,,,,,,830,2022-01-13_16h26.58.341,multiplicationStroop,2021.2.3,Win32,60.13229104,,,,,right,1,0.4731,0,2,2,57,1,2,4,2 | 4,2,1.6933,1.6933,neutral,right,,,,,,stimulusFile/magnitude.xlsx,,,,,,,,,,,,,,,,,,,,,,,,,,,,,,,
,,,,,,,,,,,,,,,830,2022-01-13_16h26.58.341,multiplicationStroop,2021.2.3,Win32,60.13229104,,,,,left,1,0.4858,0,3,3,45,1,7,2,7 | 2,5,1.4111,1.9756,incongruent,left,,,,,,stimulusFile/magnitude.xlsx,,,,,,,,,,,,,,,,,,,,,,,,,,,,,,,
,,,,,,,,,,,,,,,830,2022-01-13_16h26.58.341,multiplicationStroop,2021.2.3,Win32,60.13229104,,,,,right,1,0.5396,0,4,4,64,1,1,6,1 | 6,5,1.6933,1.6933,neutral,right,,,,,,stimulusFile/magnitude.xlsx,,,,,,,,,,,,,,,,,,,,,,,,,,,,,,,
,,,,,,,,,,,,,,,830,2022-01-13_16h26.58.341,multiplicationStroop,2021.2.3,Win32,60.13229104,,,,,left,1,0.5025,0,5,5,60,1,3,1,3 | 1,2,1.6933,1.6933,neutral,left,,,,,,stimulusFile/magnitude.xlsx,,,,,,,,,,,,,,,,,,,,,,,,,,,,,,,
,,,,,,,,,,,,,,,830,2022-01-13_16h26.58.341,multiplicationStroop,2021.2.3,Win32,60.13229104,,,,,left,1,0.5133,0,6,6,22,1,8,3,8 | 3,5,1.9756,1.4111,congruent,left,,,,,,stimulusFile/magnitude.xlsx,,,,,,,,,,,,,,,,,,,,,,,,,,,,,,,
,,,,,,,,,,,,,,,830,2022-01-13_16h26.58.341,multiplicationStroop,2021.2.3,Win32,60.13229104,,,,,left,1,0.7973,0,7,7,44,1,6,1,6 | 1,5,1.4111,1.9756,incongruent,left,,,,,,stimulusFile/magnitude.xlsx,,,,,,,,,,,,,,,,,,,,,,,,,,,,,,,
,,,,,,,,,,,,,,,830,2022-01-13_16h26.58.341,multiplicationStroop,2021.2.3,Win32,60.13229104,,,,,right,1,0.7989,0,8,8,58,1,6,8,6 | 8,2,1.6933,1.6933,neutral,right,,,,,,stimulusFile/magnitude.xlsx,,,,,,,,,,,,,,,,,,,,,,,,,,,,,,,
,,,,,,,,,,,,,,,830,2022-01-13_16h26.58.341,multiplicationStroop,2021.2.3,Win32,60.13229104,,,,,right,1,0.6193,0,9,9,1,1,3,4,3 | 4,1,1.4111,1.9756,congruent,right,,,,,,stimulusFile/magnitude.xlsx,,,,,,,,,,,,,,,,,,,,,,,,,,,,,,,
,,,,,,,,,,,,,,,830,2022-01-13_16h26.58.341,multiplicationStroop,2021.2.3,Win32,60.13229104,,,,,right,1,1.0501,0,10,10,43,1,4,9,4 | 9,5,1.9756,1.4111,incongruent,right,,,,,,stimulusFile/magnitude.xlsx,,,,,,,,,,,,,,,,,,,,,,,,,,,,,,,
,,,,,,,,,,,,,,,830,2022-01-13_16h26.58.341,multiplicationStroop,2021.2.3,Win32,60.13229104,,,,,right,1,0.6482,0,11,11,8,1,1,3,1 | 3,2,1.4111,1.9756,congruent,right,,,,,,stimulusFile/magnitude.xlsx,,,,,,,,,,,,,,,,,,,,,,,,,,,,,,,
,,,,,,,,,,,,,,,830,2022-01-13_16h26.58.341,multiplicationStroop,2021.2.3,Win32,60.13229104,,,,,left,1,0.6142,0,12,12,6,1,7,6,7 | 6,1,1.9756,1.4111,congruent,left,,,,,,stimulusFile/magnitude.xlsx,,,,,,,,,,,,,,,,,,,,,,,,,,,,,,,
,,,,,,,,,,,,,,,830,2022-01-13_16h26.58.341,multiplicationStroop,2021.2.3,Win32,60.13229104,,,,,right,1,0.5315,0,13,13,18,1,3,8,3 | 8,5,1.4111,1.9756,congruent,right,,,,,,stimulusFile/magnitude.xlsx,,,,,,,,,,,,,,,,,,,,,,,,,,,,,,,
,,,,,,,,,,,,,,,830,2022-01-13_16h26.58.341,multiplicationStroop,2021.2.3,Win32,60.13229104,,,,,right,1,0.8526,0,14,14,42,1,3,8,3 | 8,5,1.9756,1.4111,incongruent,right,,,,,,stimulusFile/magnitude.xlsx,,,,,,,,,,,,,,,,,,,,,,,,,,,,,,,
,,,,,,,,,,,,,,,830,2022-01-13_16h26.58.341,multiplicationStroop,2021.2.3,Win32,60.13229104,,,,,left,1,0.5322,0,15,15,13,1,4,2,4 | 2,2,1.9756,1.4111,congruent,left,,,,,,stimulusFile/magnitude.xlsx,,,,,,,,,,,,,,,,,,,,,,,,,,,,,,,
,,,,,,,,,,,,,,,830,2022-01-13_16h26.58.341,multiplicationStroop,2021.2.3,Win32,60.13229104,,,,,left,1,0.4877,0,16,16,5,1,4,3,4 | 3,1,1.9756,1.4111,congruent,left,,,,,,stimulusFile/magnitude.xlsx,,,,,,,,,,,,,,,,,,,,,,,,,,,,,,,
,,,,,,,,,,,,,,,830,2022-01-13_16h26.58.341,multiplicationStroop,2021.2.3,Win32,60.13229104,,,,,right,1,0.5541,0,17,17,11,1,7,9,7 | 9,2,1.4111,1.9756,congruent,right,,,,,,stimulusFile/magnitude.xlsx,,,,,,,,,,,,,,,,,,,,,,,,,,,,,,,
,,,,,,,,,,,,,,,830,2022-01-13_16h26.58.341,multiplicationStroop,2021.2.3,Win32,60.13229104,,,,,left,1,0.5893,0,18,18,7,1,9,8,9 | 8,1,1.9756,1.4111,congruent,left,,,,,,stimulusFile/magnitude.xlsx,,,,,,,,,,,,,,,,,,,,,,,,,,,,,,,
,,,,,,,,,,,,,,,830,2022-01-13_16h26.58.341,multiplicationStroop,2021.2.3,Win32,60.13229104,,,,,right,1,0.9684,0,19,19,24,1,1,2,1 | 2,1,1.9756,1.4111,incongruent,right,,,,,,stimulusFile/magnitude.xlsx,,,,,,,,,,,,,,,,,,,,,,,,,,,,,,,
,,,,,,,,,,,,,,,830,2022-01-13_16h26.58.341,multiplicationStroop,2021.2.3,Win32,60.13229104,,,,,right,1,0.5345,0,20,20,51,1,8,9,8 | 9,1,1.6933,1.6933,neutral,right,,,,,,stimulusFile/magnitude.xlsx,,,,,,,,,,,,,,,,,,,,,,,,,,,,,,,
,,,,,,,,,,,,,,,830,2022-01-13_16h26.58.341,multiplicationStroop,2021.2.3,Win32,60.13229104,,,,,left,1,0.5832,0,21,21,30,1,7,6,7 | 6,1,1.4111,1.9756,incongruent,left,,,,,,stimulusFile/magnitude.xlsx,,,,,,,,,,,,,,,,,,,,,,,,,,,,,,,
,,,,,,,,,,,,,,,830,2022-01-13_16h26.58.341,multiplicationStroop,2021.2.3,Win32,60.13229104,,,,,right,1,0.5663,0,22,22,67,1,4,9,4 | 9,5,1.6933,1.6933,neutral,right,,,,,,stimulusFile/magnitude.xlsx,,,,,,,,,,,,,,,,,,,,,,,,,,,,,,,
,,,,,,,,,,,,,,,830,2022-01-13_16h26.58.341,multiplicationStroop,2021.2.3,Win32,60.13229104,,,,,right,1,0.6053,0,23,23,50,1,6,7,6 | 7,1,1.6933,1.6933,neutral,right,,,,,,stimulusFile/magnitude.xlsx,,,,,,,,,,,,,,,,,,,,,,,,,,,,,,,
,,,,,,,,,,,,,,,830,2022-01-13_16h26.58.341,multiplicationStroop,2021.2.3,Win32,60.13229104,,,,,left,1,0.5047,0,24,24,4,1,2,1,2 | 1,1,1.9756,1.4111,congruent,left,,,,,,stimulusFile/magnitude.xlsx,,,,,,,,,,,,,,,,,,,,,,,,,,,,,,,
,,,,,,,,,,,,,,,830,2022-01-13_16h26.58.341,multiplicationStroop,2021.2.3,Win32,60.13229104,,,,,right,0,0.621,0,25,25,28,1,2,1,2 | 1,1,1.4111,1.9756,incongruent,left,,,,,,stimulusFile/magnitude.xlsx,,,,,,,,,,,,,,,,,,,,,,,,,,,,,,,
,,,,,,,,,,,,,,,830,2022-01-13_16h26.58.341,multiplicationStroop,2021.2.3,Win32,60.13229104,,,,,left,1,0.8995,0,26,26,54,1,7,6,7 | 6,1,1.6933,1.6933,neutral,left,,,,,,stimulusFile/magnitude.xlsx,,,,,,,,,,,,,,,,,,,,,,,,,,,,,,,
,,,,,,,,,,,,,,,830,2022-01-13_16h26.58.341,multiplicationStroop,2021.2.3,Win32,60.13229104,,,,,right,1,0.568,0,27,27,0,1,1,2,1 | 2,1,1.4111,1.9756,congruent,right,,,,,,stimulusFile/magnitude.xlsx,,,,,,,,,,,,,,,,,,,,,,,,,,,,,,,
,,,,,,,,,,,,,,,830,2022-01-13_16h26.58.341,multiplicationStroop,2021.2.3,Win32,60.13229104,,,,,left,1,0.548,0,28,28,53,1,4,3,4 | 3,1,1.6933,1.6933,neutral,left,,,,,,stimulusFile/magnitude.xlsx,,,,,,,,,,,,,,,,,,,,,,,,,,,,,,,
,,,,,,,,,,,,,,,830,2022-01-13_16h26.58.341,multiplicationStroop,2021.2.3,Win32,60.13229104,,,,,left,1,0.8644,0,29,29,39,1,9,7,9 | 7,2,1.4111,1.9756,incongruent,left,,,,,,stimulusFile/magnitude.xlsx,,,,,,,,,,,,,,,,,,,,,,,,,,,,,,,
,,,,,,,,,,,,,,,830,2022-01-13_16h26.58.341,multiplicationStroop,2021.2.3,Win32,60.13229104,,,,,right,1,0.6894,0,30,30,34,1,6,8,6 | 8,2,1.9756,1.4111,incongruent,right,,,,,,stimulusFile/magnitude.xlsx,,,,,,,,,,,,,,,,,,,,,,,,,,,,,,,
,,,,,,,,,,,,,,,830,2022-01-13_16h26.58.341,multiplicationStroop,2021.2.3,Win32,60.13229104,,,,,right,1,0.9661,0,31,31,2,1,6,7,6 | 7,1,1.4111,1.9756,congruent,right,,,,,,stimulusFile/magnitude.xlsx,,,,,,,,,,,,,,,,,,,,,,,,,,,,,,,
,,,,,,,,,,,,,,,830,2022-01-13_16h26.58.341,multiplicationStroop,2021.2.3,Win32,60.13229104,,,,,right,1,0.5558,0,32,32,41,1,2,7,2 | 7,5,1.9756,1.4111,incongruent,right,,,,,,stimulusFile/magnitude.xlsx,,,,,,,,,,,,,,,,,,,,,,,,,,,,,,,
,,,,,,,,,,,,,,,830,2022-01-13_16h26.58.341,multiplicationStroop,2021.2.3,Win32,60.13229104,,,,,left,1,0.5868,0,33,33,38,1,8,6,8 | 6,2,1.4111,1.9756,incongruent,left,,,,,,stimulusFile/magnitude.xlsx,,,,,,,,,,,,,,,,,,,,,,,,,,,,,,,
,,,,,,,,,,,,,,,830,2022-01-13_16h26.58.341,multiplicationStroop,2021.2.3,Win32,60.13229104,,,,,left,1,0.6734,0,34,34,52,1,2,1,2 | 1,1,1.6933,1.6933,neutral,left,,,,,,stimulusFile/magnitude.xlsx,,,,,,,,,,,,,,,,,,,,,,,,,,,,,,,
,,,,,,,,,,,,,,,830,2022-01-13_16h26.58.341,multiplicationStroop,2021.2.3,Win32,60.13229104,,,,,right,1,0.6162,0,35,35,40,1,1,6,1 | 6,5,1.9756,1.4111,incongruent,right,,,,,,stimulusFile/magnitude.xlsx,,,,,,,,,,,,,,,,,,,,,,,,,,,,,,,
,,,,,,,,,,,,,,,830,2022-01-13_16h26.58.341,multiplicationStroop,2021.2.3,Win32,60.13229104,,,,,right,1,0.8369,0,36,36,25,1,3,4,3 | 4,1,1.9756,1.4111,incongruent,right,,,,,,stimulusFile/magnitude.xlsx,,,,,,,,,,,,,,,,,,,,,,,,,,,,,,,
,,,,,,,,,,,,,,,830,2022-01-13_16h26.58.341,multiplicationStroop,2021.2.3,Win32,60.13229104,,,,,right,1,0.5329,0,37,37,19,1,4,9,4 | 9,5,1.4111,1.9756,congruent,right,,,,,,stimulusFile/magnitude.xlsx,,,,,,,,,,,,,,,,,,,,,,,,,,,,,,,
,,,,,,,,,,,,,,,830,2022-01-13_16h26.58.341,multiplicationStroop,2021.2.3,Win32,60.13229104,,,,,right,1,0.7087,0,38,38,33,1,2,4,2 | 4,2,1.9756,1.4111,incongruent,right,,,,,,stimulusFile/magnitude.xlsx,,,,,,,,,,,,,,,,,,,,,,,,,,,,,,,
,,,,,,,,,,,,,,,830,2022-01-13_16h26.58.341,multiplicationStroop,2021.2.3,Win32,60.13229104,,,,,right,1,0.9013,0,39,39,48,1,1,2,1 | 2,1,1.6933,1.6933,neutral,right,,,,,,stimulusFile/magnitude.xlsx,,,,,,,,,,,,,,,,,,,,,,,,,,,,,,,
,,,,,,,,,,,,,,,830,2022-01-13_16h26.58.341,multiplicationStroop,2021.2.3,Win32,60.13229104,,,,,left,1,0.5831,0,40,40,63,1,9,7,9 | 7,2,1.6933,1.6933,neutral,left,,,,,,stimulusFile/magnitude.xlsx,,,,,,,,,,,,,,,,,,,,,,,,,,,,,,,
,,,,,,,,,,,,,,,830,2022-01-13_16h26.58.341,multiplicationStroop,2021.2.3,Win32,60.13229104,,,,,right,1,0.5658,0,41,41,66,1,3,8,3 | 8,5,1.6933,1.6933,neutral,right,,,,,,stimulusFile/magnitude.xlsx,,,,,,,,,,,,,,,,,,,,,,,,,,,,,,,
,,,,,,,,,,,,,,,830,2022-01-13_16h26.58.341,multiplicationStroop,2021.2.3,Win32,60.13229104,,,,,right,1,0.7933,0,42,42,26,1,6,7,6 | 7,1,1.9756,1.4111,incongruent,right,,,,,,stimulusFile/magnitude.xlsx,,,,,,,,,,,,,,,,,,,,,,,,,,,,,,,
,,,,,,,,,,,,,,,830,2022-01-13_16h26.58.341,multiplicationStroop,2021.2.3,Win32,60.13229104,,,,,left,1,1.0387,0,43,43,15,1,9,7,9 | 7,2,1.9756,1.4111,congruent,left,,,,,,stimulusFile/magnitude.xlsx,,,,,,,,,,,,,,,,,,,,,,,,,,,,,,,
,,,,,,,,,,,,,,,830,2022-01-13_16h26.58.341,multiplicationStroop,2021.2.3,Win32,60.13229104,,,,,left,1,0.6893,0,44,44,68,1,6,1,6 | 1,5,1.6933,1.6933,neutral,left,,,,,,stimulusFile/magnitude.xlsx,,,,,,,,,,,,,,,,,,,,,,,,,,,,,,,
,,,,,,,,,,,,,,,830,2022-01-13_16h26.58.341,multiplicationStroop,2021.2.3,Win32,60.13229104,,,,,right,1,0.5531,0,45,45,59,1,7,9,7 | 9,2,1.6933,1.6933,neutral,right,,,,,,stimulusFile/magnitude.xlsx,,,,,,,,,,,,,,,,,,,,,,,,,,,,,,,
,,,,,,,,,,,,,,,830,2022-01-13_16h26.58.341,multiplicationStroop,2021.2.3,Win32,60.13229104,,,,,left,1,0.7665,0,46,46,70,1,8,3,8 | 3,5,1.6933,1.6933,neutral,left,,,,,,stimulusFile/magnitude.xlsx,,,,,,,,,,,,,,,,,,,,,,,,,,,,,,,
,,,,,,,,,,,,,,,830,2022-01-13_16h26.58.341,multiplicationStroop,2021.2.3,Win32,60.13229104,,,,,right,1,0.5838,0,47,47,56,1,1,3,1 | 3,2,1.6933,1.6933,neutral,right,,,,,,stimulusFile/magnitude.xlsx,,,,,,,,,,,,,,,,,,,,,,,,,,,,,,,
,,,,,,,,,,,,,,,830,2022-01-13_16h26.58.341,multiplicationStroop,2021.2.3,Win32,60.13229104,,,,,left,1,0.783,0,48,48,46,1,8,3,8 | 3,5,1.4111,1.9756,incongruent,left,,,,,,stimulusFile/magnitude.xlsx,,,,,,,,,,,,,,,,,,,,,,,,,,,,,,,
,,,,,,,,,,,,,,,830,2022-01-13_16h26.58.341,multiplicationStroop,2021.2.3,Win32,60.13229104,,,,,left,1,0.7409,0,49,49,21,1,7,2,7 | 2,5,1.9756,1.4111,congruent,left,,,,,,stimulusFile/magnitude.xlsx,,,,,,,,,,,,,,,,,,,,,,,,,,,,,,,
,,,,,,,,,,,,,,,830,2022-01-13_16h26.58.341,multiplicationStroop,2021.2.3,Win32,60.13229104,,,,,left,1,0.848,0,50,50,31,1,9,8,9 | 8,1,1.4111,1.9756,incongruent,left,,,,,,stimulusFile/magnitude.xlsx,,,,,,,,,,,,,,,,,,,,,,,,,,,,,,,
,,,,,,,,,,,,,,,830,2022-01-13_16h26.58.341,multiplicationStroop,2021.2.3,Win32,60.13229104,,,,,right,1,0.7095,0,51,51,65,1,2,7,2 | 7,5,1.6933,1.6933,neutral,right,,,,,,stimulusFile/magnitude.xlsx,,,,,,,,,,,,,,,,,,,,,,,,,,,,,,,
,,,,,,,,,,,,,,,830,2022-01-13_16h26.58.341,multiplicationStroop,2021.2.3,Win32,60.13229104,,,,,right,1,2.2811,0,52,52,35,1,7,9,7 | 9,2,1.9756,1.4111,incongruent,right,,,,,,stimulusFile/magnitude.xlsx,,,,,,,,,,,,,,,,,,,,,,,,,,,,,,,
,,,,,,,,,,,,,,,830,2022-01-13_16h26.58.341,multiplicationStroop,2021.2.3,Win32,60.13229104,,,,,right,1,0.853,0,53,53,49,1,3,4,3 | 4,1,1.6933,1.6933,neutral,right,,,,,,stimulusFile/magnitude.xlsx,,,,,,,,,,,,,,,,,,,,,,,,,,,,,,,
,,,,,,,,,,,,,,,830,2022-01-13_16h26.58.341,multiplicationStroop,2021.2.3,Win32,60.13229104,,,,,left,1,0.5085,0,54,54,36,1,3,1,3 | 1,2,1.4111,1.9756,incongruent,left,,,,,,stimulusFile/magnitude.xlsx,,,,,,,,,,,,,,,,,,,,,,,,,,,,,,,
,,,,,,,,,,,,,,,830,2022-01-13_16h26.58.341,multiplicationStroop,2021.2.3,Win32,60.13229104,,,,,left,1,0.7417,0,55,55,62,1,8,6,8 | 6,2,1.6933,1.6933,neutral,left,,,,,,stimulusFile/magnitude.xlsx,,,,,,,,,,,,,,,,,,,,,,,,,,,,,,,
,,,,,,,,,,,,,,,830,2022-01-13_16h26.58.341,multiplicationStroop,2021.2.3,Win32,60.13229104,,,,,right,1,0.516,0,56,56,17,1,2,7,2 | 7,5,1.4111,1.9756,congruent,right,,,,,,stimulusFile/magnitude.xlsx,,,,,,,,,,,,,,,,,,,,,,,,,,,,,,,
,,,,,,,,,,,,,,,830,2022-01-13_16h26.58.341,multiplicationStroop,2021.2.3,Win32,60.13229104,,,,,right,1,0.9035,0,57,57,32,1,1,3,1 | 3,2,1.9756,1.4111,incongruent,right,,,,,,stimulusFile/magnitude.xlsx,,,,,,,,,,,,,,,,,,,,,,,,,,,,,,,
,,,,,,,,,,,,,,,830,2022-01-13_16h26.58.341,multiplicationStroop,2021.2.3,Win32,60.13229104,,,,,left,1,0.5915,0,58,58,12,1,3,1,3 | 1,2,1.9756,1.4111,congruent,left,,,,,,stimulusFile/magnitude.xlsx,,,,,,,,,,,,,,,,,,,,,,,,,,,,,,,
,,,,,,,,,,,,,,,830,2022-01-13_16h26.58.341,multiplicationStroop,2021.2.3,Win32,60.13229104,,,,,left,1,0.6494,0,59,59,69,1,7,2,7 | 2,5,1.6933,1.6933,neutral,left,,,,,,stimulusFile/magnitude.xlsx,,,,,,,,,,,,,,,,,,,,,,,,,,,,,,,
,,,,,,,,,,,,,,,830,2022-01-13_16h26.58.341,multiplicationStroop,2021.2.3,Win32,60.13229104,,,,,right,1,0.5393,0,60,60,16,1,1,6,1 | 6,5,1.4111,1.9756,congruent,right,,,,,,stimulusFile/magnitude.xlsx,,,,,,,,,,,,,,,,,,,,,,,,,,,,,,,
,,,,,,,,,,,,,,,830,2022-01-13_16h26.58.341,multiplicationStroop,2021.2.3,Win32,60.13229104,,,,,right,1,0.7649,0,61,61,27,1,8,9,8 | 9,1,1.9756,1.4111,incongruent,right,,,,,,stimulusFile/magnitude.xlsx,,,,,,,,,,,,,,,,,,,,,,,,,,,,,,,
,,,,,,,,,,,,,,,830,2022-01-13_16h26.58.341,multiplicationStroop,2021.2.3,Win32,60.13229104,,,,,left,1,0.7174,0,62,62,14,1,8,6,8 | 6,2,1.9756,1.4111,congruent,left,,,,,,stimulusFile/magnitude.xlsx,,,,,,,,,,,,,,,,,,,,,,,,,,,,,,,
,,,,,,,,,,,,,,,830,2022-01-13_16h26.58.341,multiplicationStroop,2021.2.3,Win32,60.13229104,,,,,left,1,0.6731,0,63,63,29,1,4,3,4 | 3,1,1.4111,1.9756,incongruent,left,,,,,,stimulusFile/magnitude.xlsx,,,,,,,,,,,,,,,,,,,,,,,,,,,,,,,
,,,,,,,,,,,,,,,830,2022-01-13_16h26.58.341,multiplicationStroop,2021.2.3,Win32,60.13229104,,,,,left,1,0.7705,0,64,64,55,1,9,8,9 | 8,1,1.6933,1.6933,neutral,left,,,,,,stimulusFile/magnitude.xlsx,,,,,,,,,,,,,,,,,,,,,,,,,,,,,,,
,,,,,,,,,,,,,,,830,2022-01-13_16h26.58.341,multiplicationStroop,2021.2.3,Win32,60.13229104,,,,,left,1,0.5996,0,65,65,47,1,9,4,9 | 4,5,1.4111,1.9756,incongruent,left,,,,,,stimulusFile/magnitude.xlsx,,,,,,,,,,,,,,,,,,,,,,,,,,,,,,,
,,,,,,,,,,,,,,,830,2022-01-13_16h26.58.341,multiplicationStroop,2021.2.3,Win32,60.13229104,,,,,right,1,0.5376,0,66,66,10,1,6,8,6 | 8,2,1.4111,1.9756,congruent,right,,,,,,stimulusFile/magnitude.xlsx,,,,,,,,,,,,,,,,,,,,,,,,,,,,,,,
,,,,,,,,,,,,,,,830,2022-01-13_16h26.58.341,multiplicationStroop,2021.2.3,Win32,60.13229104,,,,,left,1,0.5326,0,67,67,23,1,9,4,9 | 4,5,1.9756,1.4111,congruent,left,,,,,,stimulusFile/magnitude.xlsx,,,,,,,,,,,,,,,,,,,,,,,,,,,,,,,
,,,,,,,,,,,,,,,830,2022-01-13_16h26.58.341,multiplicationStroop,2021.2.3,Win32,60.13229104,,,,,left,1,0.6722,0,68,68,37,1,4,2,4 | 2,2,1.4111,1.9756,incongruent,left,,,,,,stimulusFile/magnitude.xlsx,,,,,,,,,,,,,,,,,,,,,,,,,,,,,,,
,,,,,,,,,,,,,,,830,2022-01-13_16h26.58.341,multiplicationStroop,2021.2.3,Win32,60.13229104,,,,,right,1,0.7824,0,69,69,3,1,8,9,8 | 9,1,1.4111,1.9756,congruent,right,,,,,,stimulusFile/magnitude.xlsx,,,,,,,,,,,,,,,,,,,,,,,,,,,,,,,
,,,,,,,,,,,,,,,830,2022-01-13_16h26.58.341,multiplicationStroop,2021.2.3,Win32,60.13229104,,,,,left,1,0.5986,0,70,70,71,1,9,4,9 | 4,5,1.6933,1.6933,neutral,left,,,,,,stimulusFile/magnitude.xlsx,,,,,,,,,,,,,,,,,,,,,,,,,,,,,,,
,,,,,,,,,,,,,,,830,2022-01-13_16h26.58.341,multiplicationStroop,2021.2.3,Win32,60.13229104,,,,,right,1,0.5666,0,71,71,9,1,2,4,2 | 4,2,1.4111,1.9756,congruent,right,,,,,,stimulusFile/magnitude.xlsx,,,,,,,,,,,,,,,,,,,,,,,,,,,,,,,
,,,,,,,,,,,,,,,830,2022-01-13_16h26.58.341,multiplicationStroop,2021.2.3,Win32,60.13229104,,,,,,,,,,,,,,,,,,,,,0,0,0,0,1,stimulusFile/magnitude.xlsx,NUMERICALLY larger.,images/numericallyLarger.png,,,,,,,,,,,,,,,,,,,,,,,,,,,,,
,,,,,,,,,,,,,,,830,2022-01-13_16h26.58.341,multiplicationStroop,2021.2.3,Win32,60.13229104,space,4.8764,space,4.4703,right,1,0.7381,0,0,0,0,1,1,2,1 | 2,1,1.4111,1.9756,congruent,right,,,,,,stimulusFile/physical.xlsx,,,,,,,,,,,,,,,,,,,,,,,,,,,,,,,
,,,,,,,,,,,,,,,830,2022-01-13_16h26.58.341,multiplicationStroop,2021.2.3,Win32,60.13229104,,,,,left,0,0.4907,0,1,1,64,1,1,1,1 | 1,0,1.9756,1.4111,neutral,right,,,,,,stimulusFile/physical.xlsx,,,,,,,,,,,,,,,,,,,,,,,,,,,,,,,
,,,,,,,,,,,,,,,830,2022-01-13_16h26.58.341,multiplicationStroop,2021.2.3,Win32,60.13229104,,,,,right,1,0.5495,0,2,2,62,1,8,8,8 | 8,0,1.4111,1.9756,neutral,right,,,,,,stimulusFile/physical.xlsx,,,,,,,,,,,,,,,,,,,,,,,,,,,,,,,
,,,,,,,,,,,,,,,830,2022-01-13_16h26.58.341,multiplicationStroop,2021.2.3,Win32,60.13229104,,,,,right,1,1.0205,0,3,3,28,1,2,1,2 | 1,1,1.4111,1.9756,incongruent,right,,,,,,stimulusFile/physical.xlsx,,,,,,,,,,,,,,,,,,,,,,,,,,,,,,,
,,,,,,,,,,,,,,,830,2022-01-13_16h26.58.341,multiplicationStroop,2021.2.3,Win32,60.13229104,,,,,right,1,0.7382,0,4,4,56,1,1,1,1 | 1,0,1.4111,1.9756,neutral,right,,,,,,stimulusFile/physical.xlsx,,,,,,,,,,,,,,,,,,,,,,,,,,,,,,,
,,,,,,,,,,,,,,,830,2022-01-13_16h26.58.341,multiplicationStroop,2021.2.3,Win32,60.13229104,,,,,left,1,0.4381,0,5,5,48,1,1,1,1 | 1,0,1.9756,1.4111,neutral,left,,,,,,stimulusFile/physical.xlsx,,,,,,,,,,,,,,,,,,,,,,,,,,,,,,,
,,,,,,,,,,,,,,,830,2022-01-13_16h26.58.341,multiplicationStroop,2021.2.3,Win32,60.13229104,,,,,left,1,0.8154,0,6,6,25,1,3,4,3 | 4,1,1.9756,1.4111,incongruent,left,,,,,,stimulusFile/physical.xlsx,,,,,,,,,,,,,,,,,,,,,,,,,,,,,,,
,,,,,,,,,,,,,,,830,2022-01-13_16h26.58.341,multiplicationStroop,2021.2.3,Win32,60.13229104,,,,,left,1,0.5656,0,7,7,7,1,9,8,9 | 8,1,1.9756,1.4111,congruent,left,,,,,,stimulusFile/physical.xlsx,,,,,,,,,,,,,,,,,,,,,,,,,,,,,,,
,,,,,,,,,,,,,,,830,2022-01-13_16h26.58.341,multiplicationStroop,2021.2.3,Win32,60.13229104,,,,,right,1,1.1381,0,8,8,46,1,8,3,8 | 3,5,1.4111,1.9756,incongruent,right,,,,,,stimulusFile/physical.xlsx,,,,,,,,,,,,,,,,,,,,,,,,,,,,,,,
,,,,,,,,,,,,,,,830,2022-01-13_16h26.58.341,multiplicationStroop,2021.2.3,Win32,60.13229104,,,,,right,1,0.6487,0,9,9,67,1,4,4,4 | 4,0,1.4111,1.9756,neutral,right,,,,,,stimulusFile/physical.xlsx,,,,,,,,,,,,,,,,,,,,,,,,,,,,,,,
,,,,,,,,,,,,,,,830,2022-01-13_16h26.58.341,multiplicationStroop,2021.2.3,Win32,60.13229104,,,,,left,1,0.5701,0,10,10,50,1,6,6,6 | 6,0,1.9756,1.4111,neutral,left,,,,,,stimulusFile/physical.xlsx,,,,,,,,,,,,,,,,,,,,,,,,,,,,,,,
,,,,,,,,,,,,,,,830,2022-01-13_16h26.58.341,multiplicationStroop,2021.2.3,Win32,60.13229104,,,,,left,1,0.4665,0,11,11,52,1,2,2,2 | 2,0,1.9756,1.4111,neutral,left,,,,,,stimulusFile/physical.xlsx,,,,,,,,,,,,,,,,,,,,,,,,,,,,,,,
,,,,,,,,,,,,,,,830,2022-01-13_16h26.58.341,multiplicationStroop,2021.2.3,Win32,60.13229104,,,,,right,1,0.4486,0,12,12,1,1,3,4,3 | 4,1,1.4111,1.9756,congruent,right,,,,,,stimulusFile/physical.xlsx,,,,,,,,,,,,,,,,,,,,,,,,,,,,,,,
,,,,,,,,,,,,,,,830,2022-01-13_16h26.58.341,multiplicationStroop,2021.2.3,Win32,60.13229104,,,,,right,0,0.6749,0,13,13,71,1,9,9,9 | 9,0,1.4111,1.9756,neutral,left,,,,,,stimulusFile/physical.xlsx,,,,,,,,,,,,,,,,,,,,,,,,,,,,,,,
,,,,,,,,,,,,,,,830,2022-01-13_16h26.58.341,multiplicationStroop,2021.2.3,Win32,60.13229104,,,,,left,1,0.7801,0,14,14,34,1,6,8,6 | 8,2,1.9756,1.4111,incongruent,left,,,,,,stimulusFile/physical.xlsx,,,,,,,,,,,,,,,,,,,,,,,,,,,,,,,
,,,,,,,,,,,,,,,830,2022-01-13_16h26.58.341,multiplicationStroop,2021.2.3,Win32,60.13229104,,,,,left,1,0.5567,0,15,15,6,1,7,6,7 | 6,1,1.9756,1.4111,congruent,left,,,,,,stimulusFile/physical.xlsx,,,,,,,,,,,,,,,,,,,,,,,,,,,,,,,
,,,,,,,,,,,,,,,830,2022-01-13_16h26.58.341,multiplicationStroop,2021.2.3,Win32,60.13229104,,,,,right,1,0.499,0,16,16,39,1,9,7,9 | 7,2,1.4111,1.9756,incongruent,right,,,,,,stimulusFile/physical.xlsx,,,,,,,,,,,,,,,,,,,,,,,,,,,,,,,
,,,,,,,,,,,,,,,830,2022-01-13_16h26.58.341,multiplicationStroop,2021.2.3,Win32,60.13229104,,,,,right,1,0.5759,0,17,17,19,1,4,9,4 | 9,5,1.4111,1.9756,congruent,right,,,,,,stimulusFile/physical.xlsx,,,,,,,,,,,,,,,,,,,,,,,,,,,,,,,
,,,,,,,,,,,,,,,830,2022-01-13_16h26.58.341,multiplicationStroop,2021.2.3,Win32,60.13229104,,,,,left,1,0.4166,0,18,18,12,1,3,1,3 | 1,2,1.9756,1.4111,congruent,left,,,,,,stimulusFile/physical.xlsx,,,,,,,,,,,,,,,,,,,,,,,,,,,,,,,
,,,,,,,,,,,,,,,830,2022-01-13_16h26.58.341,multiplicationStroop,2021.2.3,Win32,60.13229104,,,,,right,1,0.4241,0,19,19,63,1,9,9,9 | 9,0,1.4111,1.9756,neutral,right,,,,,,stimulusFile/physical.xlsx,,,,,,,,,,,,,,,,,,,,,,,,,,,,,,,
,,,,,,,,,,,,,,,830,2022-01-13_16h26.58.341,multiplicationStroop,2021.2.3,Win32,60.13229104,,,,,left,1,0.399,0,20,20,23,1,9,4,9 | 4,5,1.9756,1.4111,congruent,left,,,,,,stimulusFile/physical.xlsx,,,,,,,,,,,,,,,,,,,,,,,,,,,,,,,
,,,,,,,,,,,,,,,830,2022-01-13_16h26.58.341,multiplicationStroop,2021.2.3,Win32,60.13229104,,,,,left,1,0.7097,0,21,21,49,1,3,3,3 | 3,0,1.9756,1.4111,neutral,left,,,,,,stimulusFile/physical.xlsx,,,,,,,,,,,,,,,,,,,,,,,,,,,,,,,
,,,,,,,,,,,,,,,830,2022-01-13_16h26.58.341,multiplicationStroop,2021.2.3,Win32,60.13229104,,,,,right,1,0.4488,0,22,22,61,1,4,4,4 | 4,0,1.4111,1.9756,neutral,right,,,,,,stimulusFile/physical.xlsx,,,,,,,,,,,,,,,,,,,,,,,,,,,,,,,
,,,,,,,,,,,,,,,830,2022-01-13_16h26.58.341,multiplicationStroop,2021.2.3,Win32,60.13229104,,,,,left,1,0.6898,0,23,23,40,1,1,6,1 | 6,5,1.9756,1.4111,incongruent,left,,,,,,stimulusFile/physical.xlsx,,,,,,,,,,,,,,,,,,,,,,,,,,,,,,,
,,,,,,,,,,,,,,,830,2022-01-13_16h26.58.341,multiplicationStroop,2021.2.3,Win32,60.13229104,,,,,right,1,0.4828,0,24,24,10,1,6,8,6 | 8,2,1.4111,1.9756,congruent,right,,,,,,stimulusFile/physical.xlsx,,,,,,,,,,,,,,,,,,,,,,,,,,,,,,,
,,,,,,,,,,,,,,,830,2022-01-13_16h26.58.341,multiplicationStroop,2021.2.3,Win32,60.13229104,,,,,left,1,0.4692,0,25,25,55,1,9,9,9 | 9,0,1.9756,1.4111,neutral,left,,,,,,stimulusFile/physical.xlsx,,,,,,,,,,,,,,,,,,,,,,,,,,,,,,,
,,,,,,,,,,,,,,,830,2022-01-13_16h26.58.341,multiplicationStroop,2021.2.3,Win32,60.13229104,,,,,right,1,0.4827,0,26,26,65,1,2,2,2 | 2,0,1.4111,1.9756,neutral,right,,,,,,stimulusFile/physical.xlsx,,,,,,,,,,,,,,,,,,,,,,,,,,,,,,,
,,,,,,,,,,,,,,,830,2022-01-13_16h26.58.341,multiplicationStroop,2021.2.3,Win32,60.13229104,,,,,left,0,0.4666,0,27,27,47,1,9,4,9 | 4,5,1.4111,1.9756,incongruent,right,,,,,,stimulusFile/physical.xlsx,,,,,,,,,,,,,,,,,,,,,,,,,,,,,,,
,,,,,,,,,,,,,,,830,2022-01-13_16h26.58.341,multiplicationStroop,2021.2.3,Win32,60.13229104,,,,,right,1,0.6539,0,28,28,16,1,1,6,1 | 6,5,1.4111,1.9756,congruent,right,,,,,,stimulusFile/physical.xlsx,,,,,,,,,,,,,,,,,,,,,,,,,,,,,,,
,,,,,,,,,,,,,,,830,2022-01-13_16h26.58.341,multiplicationStroop,2021.2.3,Win32,60.13229104,,,,,right,1,0.7511,0,29,29,45,1,7,2,7 | 2,5,1.4111,1.9756,incongruent,right,,,,,,stimulusFile/physical.xlsx,,,,,,,,,,,,,,,,,,,,,,,,,,,,,,,
,,,,,,,,,,,,,,,830,2022-01-13_16h26.58.341,multiplicationStroop,2021.2.3,Win32,60.13229104,,,,,left,1,0.5328,0,30,30,32,1,1,3,1 | 3,2,1.9756,1.4111,incongruent,left,,,,,,stimulusFile/physical.xlsx,,,,,,,,,,,,,,,,,,,,,,,,,,,,,,,
,,,,,,,,,,,,,,,830,2022-01-13_16h26.58.341,multiplicationStroop,2021.2.3,Win32,60.13229104,,,,,left,1,0.5083,0,31,31,14,1,8,6,8 | 6,2,1.9756,1.4111,congruent,left,,,,,,stimulusFile/physical.xlsx,,,,,,,,,,,,,,,,,,,,,,,,,,,,,,,
,,,,,,,,,,,,,,,830,2022-01-13_16h26.58.341,multiplicationStroop,2021.2.3,Win32,60.13229104,,,,,left,1,0.9054,0,32,32,35,1,7,9,7 | 9,2,1.9756,1.4111,incongruent,left,,,,,,stimulusFile/physical.xlsx,,,,,,,,,,,,,,,,,,,,,,,,,,,,,,,
,,,,,,,,,,,,,,,830,2022-01-13_16h26.58.341,multiplicationStroop,2021.2.3,Win32,60.13229104,,,,,right,1,0.4932,0,33,33,3,1,8,9,8 | 9,1,1.4111,1.9756,congruent,right,,,,,,stimulusFile/physical.xlsx,,,,,,,,,,,,,,,,,,,,,,,,,,,,,,,
,,,,,,,,,,,,,,,830,2022-01-13_16h26.58.341,multiplicationStroop,2021.2.3,Win32,60.13229104,,,,,left,1,0.5157,0,34,34,5,1,4,3,4 | 3,1,1.9756,1.4111,congruent,left,,,,,,stimulusFile/physical.xlsx,,,,,,,,,,,,,,,,,,,,,,,,,,,,,,,
,,,,,,,,,,,,,,,830,2022-01-13_16h26.58.341,multiplicationStroop,2021.2.3,Win32,60.13229104,,,,,left,1,0.8161,0,35,35,51,1,8,8,8 | 8,0,1.9756,1.4111,neutral,left,,,,,,stimulusFile/physical.xlsx,,,,,,,,,,,,,,,,,,,,,,,,,,,,,,,
,,,,,,,,,,,,,,,830,2022-01-13_16h26.58.341,multiplicationStroop,2021.2.3,Win32,60.13229104,,,,,left,1,0.6493,0,36,36,68,1,6,6,6 | 6,0,1.9756,1.4111,neutral,left,,,,,,stimulusFile/physical.xlsx,,,,,,,,,,,,,,,,,,,,,,,,,,,,,,,
,,,,,,,,,,,,,,,830,2022-01-13_16h26.58.341,multiplicationStroop,2021.2.3,Win32,60.13229104,,,,,right,1,1.0238,0,37,37,37,1,4,2,4 | 2,2,1.4111,1.9756,incongruent,right,,,,,,stimulusFile/physical.xlsx,,,,,,,,,,,,,,,,,,,,,,,,,,,,,,,
,,,,,,,,,,,,,,,830,2022-01-13_16h26.58.341,multiplicationStroop,2021.2.3,Win32,60.13229104,,,,,right,1,0.5884,0,38,38,2,1,6,7,6 | 7,1,1.4111,1.9756,congruent,right,,,,,,stimulusFile/physical.xlsx,,,,,,,,,,,,,,,,,,,,,,,,,,,,,,,
,,,,,,,,,,,,,,,830,2022-01-13_16h26.58.341,multiplicationStroop,2021.2.3,Win32,60.13229104,,,,,left,1,0.5155,0,39,39,13,1,4,2,4 | 2,2,1.9756,1.4111,congruent,left,,,,,,stimulusFile/physical.xlsx,,,,,,,,,,,,,,,,,,,,,,,,,,,,,,,
,,,,,,,,,,,,,,,830,2022-01-13_16h26.58.341,multiplicationStroop,2021.2.3,Win32,60.13229104,,,,,left,1,0.5988,0,40,40,70,1,8,8,8 | 8,0,1.9756,1.4111,neutral,left,,,,,,stimulusFile/physical.xlsx,,,,,,,,,,,,,,,,,,,,,,,,,,,,,,,
,,,,,,,,,,,,,,,830,2022-01-13_16h26.58.341,multiplicationStroop,2021.2.3,Win32,60.13229104,,,,,right,1,0.6215,0,41,41,29,1,4,3,4 | 3,1,1.4111,1.9756,incongruent,right,,,,,,stimulusFile/physical.xlsx,,,,,,,,,,,,,,,,,,,,,,,,,,,,,,,
,,,,,,,,,,,,,,,830,2022-01-13_16h26.58.341,multiplicationStroop,2021.2.3,Win32,60.13229104,,,,,left,1,0.4988,0,42,42,21,1,7,2,7 | 2,5,1.9756,1.4111,congruent,left,,,,,,stimulusFile/physical.xlsx,,,,,,,,,,,,,,,,,,,,,,,,,,,,,,,
,,,,,,,,,,,,,,,830,2022-01-13_16h26.58.341,multiplicationStroop,2021.2.3,Win32,60.13229104,,,,,left,1,0.5735,0,43,43,26,1,6,7,6 | 7,1,1.9756,1.4111,incongruent,left,,,,,,stimulusFile/physical.xlsx,,,,,,,,,,,,,,,,,,,,,,,,,,,,,,,
,,,,,,,,,,,,,,,830,2022-01-13_16h26.58.341,multiplicationStroop,2021.2.3,Win32,60.13229104,,,,,right,1,0.9021,0,44,44,44,1,6,1,6 | 1,5,1.4111,1.9756,incongruent,right,,,,,,stimulusFile/physical.xlsx,,,,,,,,,,,,,,,,,,,,,,,,,,,,,,,
,,,,,,,,,,,,,,,830,2022-01-13_16h26.58.341,multiplicationStroop,2021.2.3,Win32,60.13229104,,,,,right,1,0.5361,0,45,45,8,1,1,3,1 | 3,2,1.4111,1.9756,congruent,right,,,,,,stimulusFile/physical.xlsx,,,,,,,,,,,,,,,,,,,,,,,,,,,,,,,
,,,,,,,,,,,,,,,830,2022-01-13_16h26.58.341,multiplicationStroop,2021.2.3,Win32,60.13229104,,,,,right,1,0.616,0,46,46,38,1,8,6,8 | 6,2,1.4111,1.9756,incongruent,right,,,,,,stimulusFile/physical.xlsx,,,,,,,,,,,,,,,,,,,,,,,,,,,,,,,
,,,,,,,,,,,,,,,830,2022-01-13_16h26.58.341,multiplicationStroop,2021.2.3,Win32,60.13229104,,,,,left,1,0.4675,0,47,47,53,1,4,4,4 | 4,0,1.9756,1.4111,neutral,left,,,,,,stimulusFile/physical.xlsx,,,,,,,,,,,,,,,,,,,,,,,,,,,,,,,
,,,,,,,,,,,,,,,830,2022-01-13_16h26.58.341,multiplicationStroop,2021.2.3,Win32,60.13229104,,,,,left,1,0.7431,0,48,48,27,1,8,9,8 | 9,1,1.9756,1.4111,incongruent,left,,,,,,stimulusFile/physical.xlsx,,,,,,,,,,,,,,,,,,,,,,,,,,,,,,,
,,,,,,,,,,,,,,,830,2022-01-13_16h26.58.341,multiplicationStroop,2021.2.3,Win32,60.13229104,,,,,right,0,0.5187,0,49,49,69,1,7,7,7 | 7,0,1.4111,1.9756,neutral,left,,,,,,stimulusFile/physical.xlsx,,,,,,,,,,,,,,,,,,,,,,,,,,,,,,,
,,,,,,,,,,,,,,,830,2022-01-13_16h26.58.341,multiplicationStroop,2021.2.3,Win32,60.13229104,,,,,right,1,0.5004,0,50,50,60,1,3,3,3 | 3,0,1.4111,1.9756,neutral,right,,,,,,stimulusFile/physical.xlsx,,,,,,,,,,,,,,,,,,,,,,,,,,,,,,,
,,,,,,,,,,,,,,,830,2022-01-13_16h26.58.341,multiplicationStroop,2021.2.3,Win32,60.13229104,,,,,right,1,0.5179,0,51,51,18,1,3,8,3 | 8,5,1.4111,1.9756,congruent,right,,,,,,stimulusFile/physical.xlsx,,,,,,,,,,,,,,,,,,,,,,,,,,,,,,,
,,,,,,,,,,,,,,,830,2022-01-13_16h26.58.341,multiplicationStroop,2021.2.3,Win32,60.13229104,,,,,left,1,0.602,0,52,52,24,1,1,2,1 | 2,1,1.9756,1.4111,incongruent,left,,,,,,stimulusFile/physical.xlsx,,,,,,,,,,,,,,,,,,,,,,,,,,,,,,,
,,,,,,,,,,,,,,,830,2022-01-13_16h26.58.341,multiplicationStroop,2021.2.3,Win32,60.13229104,,,,,left,1,0.9322,0,53,53,41,1,2,7,2 | 7,5,1.9756,1.4111,incongruent,left,,,,,,stimulusFile/physical.xlsx,,,,,,,,,,,,,,,,,,,,,,,,,,,,,,,
,,,,,,,,,,,,,,,830,2022-01-13_16h26.58.341,multiplicationStroop,2021.2.3,Win32,60.13229104,,,,,left,1,0.625,0,54,54,42,1,3,8,3 | 8,5,1.9756,1.4111,incongruent,left,,,,,,stimulusFile/physical.xlsx,,,,,,,,,,,,,,,,,,,,,,,,,,,,,,,
,,,,,,,,,,,,,,,830,2022-01-13_16h26.58.341,multiplicationStroop,2021.2.3,Win32,60.13229104,,,,,right,1,0.5156,0,55,55,36,1,3,1,3 | 1,2,1.4111,1.9756,incongruent,right,,,,,,stimulusFile/physical.xlsx,,,,,,,,,,,,,,,,,,,,,,,,,,,,,,,
,,,,,,,,,,,,,,,830,2022-01-13_16h26.58.341,multiplicationStroop,2021.2.3,Win32,60.13229104,,,,,right,1,0.7,0,56,56,31,1,9,8,9 | 8,1,1.4111,1.9756,incongruent,right,,,,,,stimulusFile/physical.xlsx,,,,,,,,,,,,,,,,,,,,,,,,,,,,,,,
,,,,,,,,,,,,,,,830,2022-01-13_16h26.58.341,multiplicationStroop,2021.2.3,Win32,60.13229104,,,,,right,1,0.5824,0,57,57,11,1,7,9,7 | 9,2,1.4111,1.9756,congruent,right,,,,,,stimulusFile/physical.xlsx,,,,,,,,,,,,,,,,,,,,,,,,,,,,,,,
,,,,,,,,,,,,,,,830,2022-01-13_16h26.58.341,multiplicationStroop,2021.2.3,Win32,60.13229104,,,,,right,1,0.7513,0,58,58,30,1,7,6,7 | 6,1,1.4111,1.9756,incongruent,right,,,,,,stimulusFile/physical.xlsx,,,,,,,,,,,,,,,,,,,,,,,,,,,,,,,
,,,,,,,,,,,,,,,830,2022-01-13_16h26.58.341,multiplicationStroop,2021.2.3,Win32,60.13229104,,,,,right,1,0.5584,0,59,59,59,1,7,7,7 | 7,0,1.4111,1.9756,neutral,right,,,,,,stimulusFile/physical.xlsx,,,,,,,,,,,,,,,,,,,,,,,,,,,,,,,
,,,,,,,,,,,,,,,830,2022-01-13_16h26.58.341,multiplicationStroop,2021.2.3,Win32,60.13229104,,,,,left,1,0.7329,0,60,60,43,1,4,9,4 | 9,5,1.9756,1.4111,incongruent,left,,,,,,stimulusFile/physical.xlsx,,,,,,,,,,,,,,,,,,,,,,,,,,,,,,,
,,,,,,,,,,,,,,,830,2022-01-13_16h26.58.341,multiplicationStroop,2021.2.3,Win32,60.13229104,,,,,right,1,0.4496,0,61,61,58,1,6,6,6 | 6,0,1.4111,1.9756,neutral,right,,,,,,stimulusFile/physical.xlsx,,,,,,,,,,,,,,,,,,,,,,,,,,,,,,,
,,,,,,,,,,,,,,,830,2022-01-13_16h26.58.341,multiplicationStroop,2021.2.3,Win32,60.13229104,,,,,left,1,0.567,0,62,62,22,1,8,3,8 | 3,5,1.9756,1.4111,congruent,left,,,,,,stimulusFile/physical.xlsx,,,,,,,,,,,,,,,,,,,,,,,,,,,,,,,
,,,,,,,,,,,,,,,830,2022-01-13_16h26.58.341,multiplicationStroop,2021.2.3,Win32,60.13229104,,,,,left,1,0.7713,0,63,63,15,1,9,7,9 | 7,2,1.9756,1.4111,congruent,left,,,,,,stimulusFile/physical.xlsx,,,,,,,,,,,,,,,,,,,,,,,,,,,,,,,
,,,,,,,,,,,,,,,830,2022-01-13_16h26.58.341,multiplicationStroop,2021.2.3,Win32,60.13229104,,,,,right,1,0.5495,0,64,64,57,1,2,2,2 | 2,0,1.4111,1.9756,neutral,right,,,,,,stimulusFile/physical.xlsx,,,,,,,,,,,,,,,,,,,,,,,,,,,,,,,
,,,,,,,,,,,,,,,830,2022-01-13_16h26.58.341,multiplicationStroop,2021.2.3,Win32,60.13229104,,,,,right,1,0.7269,0,65,65,9,1,2,4,2 | 4,2,1.4111,1.9756,congruent,right,,,,,,stimulusFile/physical.xlsx,,,,,,,,,,,,,,,,,,,,,,,,,,,,,,,
,,,,,,,,,,,,,,,830,2022-01-13_16h26.58.341,multiplicationStroop,2021.2.3,Win32,60.13229104,,,,,left,1,0.4927,0,66,66,4,1,2,1,2 | 1,1,1.9756,1.4111,congruent,left,,,,,,stimulusFile/physical.xlsx,,,,,,,,,,,,,,,,,,,,,,,,,,,,,,,
,,,,,,,,,,,,,,,830,2022-01-13_16h26.58.341,multiplicationStroop,2021.2.3,Win32,60.13229104,,,,,right,1,0.5318,0,67,67,17,1,2,7,2 | 7,5,1.4111,1.9756,congruent,right,,,,,,stimulusFile/physical.xlsx,,,,,,,,,,,,,,,,,,,,,,,,,,,,,,,
,,,,,,,,,,,,,,,830,2022-01-13_16h26.58.341,multiplicationStroop,2021.2.3,Win32,60.13229104,,,,,left,0,0.8916,0,68,68,66,1,3,3,3 | 3,0,1.9756,1.4111,neutral,right,,,,,,stimulusFile/physical.xlsx,,,,,,,,,,,,,,,,,,,,,,,,,,,,,,,
,,,,,,,,,,,,,,,830,2022-01-13_16h26.58.341,multiplicationStroop,2021.2.3,Win32,60.13229104,,,,,left,1,0.7346,0,69,69,20,1,6,1,6 | 1,5,1.9756,1.4111,congruent,left,,,,,,stimulusFile/physical.xlsx,,,,,,,,,,,,,,,,,,,,,,,,,,,,,,,
,,,,,,,,,,,,,,,830,2022-01-13_16h26.58.341,multiplicationStroop,2021.2.3,Win32,60.13229104,,,,,right,0,1.0391,0,70,70,54,1,7,7,7 | 7,0,1.9756,1.4111,neutral,left,,,,,,stimulusFile/physical.xlsx,,,,,,,,,,,,,,,,,,,,,,,,,,,,,,,
,,,,,,,,,,,,,,,830,2022-01-13_16h26.58.341,multiplicationStroop,2021.2.3,Win32,60.13229104,,,,,left,1,0.9386,0,71,71,33,1,2,4,2 | 4,2,1.9756,1.4111,incongruent,left,,,,,,stimulusFile/physical.xlsx,,,,,,,,,,,,,,,,,,,,,,,,,,,,,,,
,,,,,,,,,,,,,,,830,2022-01-13_16h26.58.341,multiplicationStroop,2021.2.3,Win32,60.13229104,,,,,,,,,,,,,,,,,,,,,0,1,1,1,1,stimulusFile/physical.xlsx,PHYSICALLY larger.,images/physicallyLarger.png,,,,,,,,,,,,,,,,,,,,,,,,,,,,,
,,,,,,,,,,,,,,,830,2022-01-13_16h26.58.341,multiplicationStroop,2021.2.3,Win32,60.13229104,,,,,,,,,,,,,,,,,,,,,,,,,,,,,space,3.9144,space,1.6181,12,3.1596,1,0,0,0,5,1,3,×,4,3 × 4,incongruent,smallerFirst,2,1,12,,,,,,,,
,,,,,,,,,,,,,,,830,2022-01-13_16h26.58.341,multiplicationStroop,2021.2.3,Win32,60.13229104,,,,,,,,,,,,,,,,,,,,,,,,,,,,,,,,,56,3.1002,1,0,1,1,14,1,8,×,7,8 × 7,incongruent,largerFirst,1,2,56,,,,,,,,
,,,,,,,,,,,,,,,830,2022-01-13_16h26.58.341,multiplicationStroop,2021.2.3,Win32,60.13229104,,,,,,,,,,,,,,,,,,,,,,,,,,,,,,,,,27,1.964,1,0,2,2,18,1,9,×,3,9 × 3,incongruent,largerFirst,1,2,27,,,,,,,,
,,,,,,,,,,,,,,,830,2022-01-13_16h26.58.341,multiplicationStroop,2021.2.3,Win32,60.13229104,,,,,,,,,,,,,,,,,,,,,,,,,,,,,,,,,32,1.7465,1,0,3,3,7,1,4,×,8,4 × 8,incongruent,smallerFirst,2,1,32,,,,,,,,
,,,,,,,,,,,,,,,830,2022-01-13_16h26.58.341,multiplicationStroop,2021.2.3,Win32,60.13229104,,,,,,,,,,,,,,,,,,,,,,,,,,,,,,,,,53,5.2934,0,0,4,4,3,1,7,×,9,7 × 9,incongruent,smallerFirst,2,1,63,,,,,,,,
,,,,,,,,,,,,,,,830,2022-01-13_16h26.58.341,multiplicationStroop,2021.2.3,Win32,60.13229104,,,,,,,,,,,,,,,,,,,,,,,,,,,,,,,,,12,1.4667,1,0,5,5,19,1,6,×,2,6 × 2,incongruent,largerFirst,1,2,12,,,,,,,,
,,,,,,,,,,,,,,,830,2022-01-13_16h26.58.341,multiplicationStroop,2021.2.3,Win32,60.13229104,,,,,,,,,,,,,,,,,,,,,,,,,,,,,,,,,35,1.6133,1,0,6,6,12,1,5,×,7,5 × 7,incongruent,smallerFirst,2,1,35,,,,,,,,
,,,,,,,,,,,,,,,830,2022-01-13_16h26.58.341,multiplicationStroop,2021.2.3,Win32,60.13229104,,,,,,,,,,,,,,,,,,,,,,,,,,,,,,,,,49,1.9803,1,0,7,7,33,1,7,×,7,7 × 7,incongruent,tie,1,2,49,,,,,,,,
,,,,,,,,,,,,,,,830,2022-01-13_16h26.58.341,multiplicationStroop,2021.2.3,Win32,60.13229104,,,,,,,,,,,,,,,,,,,,,,,,,,,,,,,,,40,1.7803,1,0,8,8,13,1,5,×,8,5 × 8,incongruent,smallerFirst,2,1,40,,,,,,,,
,,,,,,,,,,,,,,,830,2022-01-13_16h26.58.341,multiplicationStroop,2021.2.3,Win32,60.13229104,,,,,,,,,,,,,,,,,,,,,,,,,,,,,,,,,20,1.6965,1,0,9,9,27,1,5,×,4,5 × 4,incongruent,largerFirst,1,2,20,,,,,,,,
,,,,,,,,,,,,,,,830,2022-01-13_16h26.58.341,multiplicationStroop,2021.2.3,Win32,60.13229104,,,,,,,,,,,,,,,,,,,,,,,,,,,,,,,,,36,1.6469,1,0,10,10,32,1,6,×,6,6 × 6,incongruent,tie,1,2,36,,,,,,,,
,,,,,,,,,,,,,,,830,2022-01-13_16h26.58.341,multiplicationStroop,2021.2.3,Win32,60.13229104,,,,,,,,,,,,,,,,,,,,,,,,,,,,,,,,,36,1.6636,1,0,11,11,15,1,9,×,4,9 × 4,incongruent,largerFirst,1,2,36,,,,,,,,
,,,,,,,,,,,,,,,830,2022-01-13_16h26.58.341,multiplicationStroop,2021.2.3,Win32,60.13229104,,,,,,,,,,,,,,,,,,,,,,,,,,,,,,,,,18,1.7646,1,0,12,12,2,1,2,×,9,2 × 9,incongruent,smallerFirst,2,1,18,,,,,,,,
,,,,,,,,,,,,,,,830,2022-01-13_16h26.58.341,multiplicationStroop,2021.2.3,Win32,60.13229104,,,,,,,,,,,,,,,,,,,,,,,,,,,,,,,,,45,1.6987,1,0,13,13,22,1,9,×,5,9 × 5,incongruent,largerFirst,1,2,45,,,,,,,,
,,,,,,,,,,,,,,,830,2022-01-13_16h26.58.341,multiplicationStroop,2021.2.3,Win32,60.13229104,,,,,,,,,,,,,,,,,,,,,,,,,,,,,,,,,15,1.5811,1,0,14,14,10,1,3,×,5,3 × 5,incongruent,smallerFirst,2,1,15,,,,,,,,
,,,,,,,,,,,,,,,830,2022-01-13_16h26.58.341,multiplicationStroop,2021.2.3,Win32,60.13229104,,,,,,,,,,,,,,,,,,,,,,,,,,,,,,,,,64,2.2611,1,0,15,15,34,1,8,×,8,8 × 8,incongruent,tie,1,2,64,,,,,,,,
,,,,,,,,,,,,,,,830,2022-01-13_16h26.58.341,multiplicationStroop,2021.2.3,Win32,60.13229104,,,,,,,,,,,,,,,,,,,,,,,,,,,,,,,,,10,1.7133,1,0,16,16,21,1,5,×,2,5 × 2,incongruent,largerFirst,1,2,10,,,,,,,,
,,,,,,,,,,,,,,,830,2022-01-13_16h26.58.341,multiplicationStroop,2021.2.3,Win32,60.13229104,,,,,,,,,,,,,,,,,,,,,,,,,,,,,,,,,21,1.4637,1,0,17,17,26,1,7,×,3,7 × 3,incongruent,largerFirst,1,2,21,,,,,,,,
,,,,,,,,,,,,,,,830,2022-01-13_16h26.58.341,multiplicationStroop,2021.2.3,Win32,60.13229104,,,,,,,,,,,,,,,,,,,,,,,,,,,,,,,,,9,1.779,1,0,18,18,29,1,3,×,3,3 × 3,incongruent,tie,1,2,9,,,,,,,,
,,,,,,,,,,,,,,,830,2022-01-13_16h26.58.341,multiplicationStroop,2021.2.3,Win32,60.13229104,,,,,,,,,,,,,,,,,,,,,,,,,,,,,,,,,48,3.8283,1,0,19,19,1,1,6,×,8,6 × 8,incongruent,smallerFirst,2,1,48,,,,,,,,
,,,,,,,,,,,,,,,830,2022-01-13_16h26.58.341,multiplicationStroop,2021.2.3,Win32,60.13229104,,,,,,,,,,,,,,,,,,,,,,,,,,,,,,,,,24,1.675,1,0,20,20,20,1,6,×,4,6 × 4,incongruent,largerFirst,1,2,24,,,,,,,,
,,,,,,,,,,,,,,,830,2022-01-13_16h26.58.341,multiplicationStroop,2021.2.3,Win32,60.13229104,,,,,,,,,,,,,,,,,,,,,,,,,,,,,,,,,18,1.8806,1,0,21,21,8,1,3,×,6,3 × 6,incongruent,smallerFirst,2,1,18,,,,,,,,
,,,,,,,,,,,,,,,830,2022-01-13_16h26.58.341,multiplicationStroop,2021.2.3,Win32,60.13229104,,,,,,,,,,,,,,,,,,,,,,,,,,,,,,,,,81,3.7778,1,0,22,22,35,1,9,×,9,9 × 9,incongruent,tie,1,2,81,,,,,,,,
,,,,,,,,,,,,,,,830,2022-01-13_16h26.58.341,multiplicationStroop,2021.2.3,Win32,60.13229104,,,,,,,,,,,,,,,,,,,,,,,,,,,,,,,,,30,1.8013,1,0,23,23,25,1,6,×,5,6 × 5,incongruent,largerFirst,1,2,30,,,,,,,,
,,,,,,,,,,,,,,,830,2022-01-13_16h26.58.341,multiplicationStroop,2021.2.3,Win32,60.13229104,,,,,,,,,,,,,,,,,,,,,,,,,,,,,,,,,4,1.3805,1,0,24,24,28,1,2,×,2,2 × 2,incongruent,tie,1,2,4,,,,,,,,
,,,,,,,,,,,,,,,830,2022-01-13_16h26.58.341,multiplicationStroop,2021.2.3,Win32,60.13229104,,,,,,,,,,,,,,,,,,,,,,,,,,,,,,,,,8,1.6312,1,0,25,25,24,1,4,×,2,4 × 2,incongruent,largerFirst,1,2,8,,,,,,,,
,,,,,,,,,,,,,,,830,2022-01-13_16h26.58.341,multiplicationStroop,2021.2.3,Win32,60.13229104,,,,,,,,,,,,,,,,,,,,,,,,,,,,,,,,,16,1.6811,1,0,26,26,23,1,8,×,2,8 × 2,incongruent,largerFirst,1,2,16,,,,,,,,
,,,,,,,,,,,,,,,830,2022-01-13_16h26.58.341,multiplicationStroop,2021.2.3,Win32,60.13229104,,,,,,,,,,,,,,,,,,,,,,,,,,,,,,,,,54,9.3897,1,0,27,27,6,1,6,×,9,6 × 9,incongruent,smallerFirst,2,1,54,,,,,,,,
,,,,,,,,,,,,,,,830,2022-01-13_16h26.58.341,multiplicationStroop,2021.2.3,Win32,60.13229104,,,,,,,,,,,,,,,,,,,,,,,,,,,,,,,,,14,1.4839,1,0,28,28,4,1,2,×,7,2 × 7,incongruent,smallerFirst,2,1,14,,,,,,,,
,,,,,,,,,,,,,,,830,2022-01-13_16h26.58.341,multiplicationStroop,2021.2.3,Win32,60.13229104,,,,,,,,,,,,,,,,,,,,,,,,,,,,,,,,,72,6.1263,1,0,29,29,0,1,8,×,9,8 × 9,incongruent,smallerFirst,2,1,72,,,,,,,,
,,,,,,,,,,,,,,,830,2022-01-13_16h26.58.341,multiplicationStroop,2021.2.3,Win32,60.13229104,,,,,,,,,,,,,,,,,,,,,,,,,,,,,,,,,24,1.8016,1,0,30,30,9,1,3,×,8,3 × 8,incongruent,smallerFirst,2,1,24,,,,,,,,
,,,,,,,,,,,,,,,830,2022-01-13_16h26.58.341,multiplicationStroop,2021.2.3,Win32,60.13229104,,,,,,,,,,,,,,,,,,,,,,,,,,,,,,,,,25,1.7472,1,0,31,31,31,1,5,×,5,5 × 5,incongruent,tie,1,2,25,,,,,,,,
,,,,,,,,,,,,,,,830,2022-01-13_16h26.58.341,multiplicationStroop,2021.2.3,Win32,60.13229104,,,,,,,,,,,,,,,,,,,,,,,,,,,,,,,,,42,1.7401,1,0,32,32,17,1,7,×,6,7 × 6,incongruent,largerFirst,1,2,42,,,,,,,,
,,,,,,,,,,,,,,,830,2022-01-13_16h26.58.341,multiplicationStroop,2021.2.3,Win32,60.13229104,,,,,,,,,,,,,,,,,,,,,,,,,,,,,,,,,28,2.0142,1,0,33,33,16,1,7,×,4,7 × 4,incongruent,largerFirst,1,2,28,,,,,,,,
,,,,,,,,,,,,,,,830,2022-01-13_16h26.58.341,multiplicationStroop,2021.2.3,Win32,60.13229104,,,,,,,,,,,,,,,,,,,,,,,,,,,,,,,,,16,1.6812,1,0,34,34,30,1,4,×,4,4 × 4,incongruent,tie,1,2,16,,,,,,,,
,,,,,,,,,,,,,,,830,2022-01-13_16h26.58.341,multiplicationStroop,2021.2.3,Win32,60.13229104,,,,,,,,,,,,,,,,,,,,,,,,,,,,,,,,,6,1.5625,1,0,35,35,11,1,2,×,3,2 × 3,incongruent,smallerFirst,2,1,6,,,,,,,,
,,,,,,,,,,,,,,,830,2022-01-13_16h26.58.341,multiplicationStroop,2021.2.3,Win32,60.13229104,,,,,,,,,,,,,,,,,,,,,,,,,,,,,,,,,,,,,,,,,,,,,,,,,,0,0,0,5,1,stimulusFile/mult_blk6_INcongruent.xlsx,,
,,,,,,,,,,,,,,,830,2022-01-13_16h26.58.341,multiplicationStroop,2021.2.3,Win32,60.13229104,,,,,,,,,,,,,,,,,,,,,,,,,,,,,,,space,1.6727,27,1.6426,1,0,0,0,12,1,3,×,9,3 × 9,congruent,smallerFirst,1,2,27,,,,,,,,
,,,,,,,,,,,,,,,830,2022-01-13_16h26.58.341,multiplicationStroop,2021.2.3,Win32,60.13229104,,,,,,,,,,,,,,,,,,,,,,,,,,,,,,,,,48,1.8302,1,0,1,1,4,1,6,×,8,6 × 8,congruent,smallerFirst,1,2,48,,,,,,,,
,,,,,,,,,,,,,,,830,2022-01-13_16h26.58.341,multiplicationStroop,2021.2.3,Win32,60.13229104,,,,,,,,,,,,,,,,,,,,,,,,,,,,,,,,,42,2.3128,1,0,2,2,17,1,7,×,6,7 × 6,congruent,largerFirst,2,1,42,,,,,,,,
,,,,,,,,,,,,,,,830,2022-01-13_16h26.58.341,multiplicationStroop,2021.2.3,Win32,60.13229104,,,,,,,,,,,,,,,,,,,,,,,,,,,,,,,,,45,1.6633,1,0,3,3,9,1,5,×,9,5 × 9,congruent,smallerFirst,1,2,45,,,,,,,,
,,,,,,,,,,,,,,,830,2022-01-13_16h26.58.341,multiplicationStroop,2021.2.3,Win32,60.13229104,,,,,,,,,,,,,,,,,,,,,,,,,,,,,,,,,40,1.8633,1,0,4,4,20,1,8,×,5,8 × 5,congruent,largerFirst,2,1,40,,,,,,,,
,,,,,,,,,,,,,,,830,2022-01-13_16h26.58.341,multiplicationStroop,2021.2.3,Win32,60.13229104,,,,,,,,,,,,,,,,,,,,,,,,,,,,,,,,,49,1.7631,1,0,5,5,33,1,7,×,7,7 × 7,neutral,tie,1,2,49,,,,,,,,
,,,,,,,,,,,,,,,830,2022-01-13_16h26.58.341,multiplicationStroop,2021.2.3,Win32,60.13229104,,,,,,,,,,,,,,,,,,,,,,,,,,,,,,,,,9,1.4137,1,0,6,6,29,1,3,×,3,3 × 3,neutral,tie,1,2,9,,,,,,,,
,,,,,,,,,,,,,,,830,2022-01-13_16h26.58.341,multiplicationStroop,2021.2.3,Win32,60.13229104,,,,,,,,,,,,,,,,,,,,,,,,,,,,,,,,,10,1.7304,1,0,7,7,10,1,2,×,5,2 × 5,congruent,smallerFirst,1,2,10,,,,,,,,
,,,,,,,,,,,,,,,830,2022-01-13_16h26.58.341,multiplicationStroop,2021.2.3,Win32,60.13229104,,,,,,,,,,,,,,,,,,,,,,,,,,,,,,,,,56,3.2455,1,0,8,8,22,1,8,×,7,8 × 7,congruent,largerFirst,2,1,56,,,,,,,,
,,,,,,,,,,,,,,,830,2022-01-13_16h26.58.341,multiplicationStroop,2021.2.3,Win32,60.13229104,,,,,,,,,,,,,,,,,,,,,,,,,,,,,,,,,72,3.0132,1,0,9,9,3,1,8,×,9,8 × 9,congruent,smallerFirst,1,2,72,,,,,,,,
,,,,,,,,,,,,,,,830,2022-01-13_16h26.58.341,multiplicationStroop,2021.2.3,Win32,60.13229104,,,,,,,,,,,,,,,,,,,,,,,,,,,,,,,,,24,1.7487,1,0,10,10,24,1,8,×,3,8 × 3,congruent,largerFirst,2,1,24,,,,,,,,
,,,,,,,,,,,,,,,830,2022-01-13_16h26.58.341,multiplicationStroop,2021.2.3,Win32,60.13229104,,,,,,,,,,,,,,,,,,,,,,,,,,,,,,,,,36,1.9298,1,0,11,11,14,1,9,×,4,9 × 4,congruent,largerFirst,2,1,36,,,,,,,,
,,,,,,,,,,,,,,,830,2022-01-13_16h26.58.341,multiplicationStroop,2021.2.3,Win32,60.13229104,,,,,,,,,,,,,,,,,,,,,,,,,,,,,,,,,63,4.7774,1,0,12,12,7,1,7,×,9,7 × 9,congruent,smallerFirst,1,2,63,,,,,,,,
,,,,,,,,,,,,,,,830,2022-01-13_16h26.58.341,multiplicationStroop,2021.2.3,Win32,60.13229104,,,,,,,,,,,,,,,,,,,,,,,,,,,,,,,,,18,1.6175,1,0,13,13,8,1,2,×,9,2 × 9,congruent,smallerFirst,1,2,18,,,,,,,,
,,,,,,,,,,,,,,,830,2022-01-13_16h26.58.341,multiplicationStroop,2021.2.3,Win32,60.13229104,,,,,,,,,,,,,,,,,,,,,,,,,,,,,,,,,30,1.7132,1,0,14,14,1,1,5,×,6,5 × 6,congruent,smallerFirst,1,2,30,,,,,,,,
,,,,,,,,,,,,,,,830,2022-01-13_16h26.58.341,multiplicationStroop,2021.2.3,Win32,60.13229104,,,,,,,,,,,,,,,,,,,,,,,,,,,,,,,,,16,1.5638,1,0,15,15,19,1,8,×,2,8 × 2,congruent,largerFirst,2,1,16,,,,,,,,
,,,,,,,,,,,,,,,830,2022-01-13_16h26.58.341,multiplicationStroop,2021.2.3,Win32,60.13229104,,,,,,,,,,,,,,,,,,,,,,,,,,,,,,,,,6,1.4804,1,0,16,16,27,1,3,×,2,3 × 2,congruent,largerFirst,2,1,6,,,,,,,,
,,,,,,,,,,,,,,,830,2022-01-13_16h26.58.341,multiplicationStroop,2021.2.3,Win32,60.13229104,,,,,,,,,,,,,,,,,,,,,,,,,,,,,,,,,64,2.3626,1,0,17,17,34,1,8,×,8,8 × 8,neutral,tie,1,2,64,,,,,,,,
,,,,,,,,,,,,,,,830,2022-01-13_16h26.58.341,multiplicationStroop,2021.2.3,Win32,60.13229104,,,,,,,,,,,,,,,,,,,,,,,,,,,,,,,,,54,4.7941,1,0,18,18,26,1,9,×,6,9 × 6,congruent,largerFirst,2,1,54,,,,,,,,
,,,,,,,,,,,,,,,830,2022-01-13_16h26.58.341,multiplicationStroop,2021.2.3,Win32,60.13229104,,,,,,,,,,,,,,,,,,,,,,,,,,,,,,,,,14,1.5673,1,0,19,19,0,1,2,×,7,2 × 7,congruent,smallerFirst,1,2,14,,,,,,,,
,,,,,,,,,,,,,,,830,2022-01-13_16h26.58.341,multiplicationStroop,2021.2.3,Win32,60.13229104,,,,,,,,,,,,,,,,,,,,,,,,,,,,,,,,,24,1.5303,1,0,20,20,11,1,4,×,6,4 × 6,congruent,smallerFirst,1,2,24,,,,,,,,
,,,,,,,,,,,,,,,830,2022-01-13_16h26.58.341,multiplicationStroop,2021.2.3,Win32,60.13229104,,,,,,,,,,,,,,,,,,,,,,,,,,,,,,,,,20,1.6468,1,0,21,21,21,1,5,×,4,5 × 4,congruent,largerFirst,2,1,20,,,,,,,,
,,,,,,,,,,,,,,,830,2022-01-13_16h26.58.341,multiplicationStroop,2021.2.3,Win32,60.13229104,,,,,,,,,,,,,,,,,,,,,,,,,,,,,,,,,21,1.4469,1,0,22,22,2,1,3,×,7,3 × 7,congruent,smallerFirst,1,2,21,,,,,,,,
,,,,,,,,,,,,,,,830,2022-01-13_16h26.58.341,multiplicationStroop,2021.2.3,Win32,60.13229104,,,,,,,,,,,,,,,,,,,,,,,,,,,,,,,,,35,1.5138,1,0,23,23,15,1,7,×,5,7 × 5,congruent,largerFirst,2,1,35,,,,,,,,
,,,,,,,,,,,,,,,830,2022-01-13_16h26.58.341,multiplicationStroop,2021.2.3,Win32,60.13229104,,,,,,,,,,,,,,,,,,,,,,,,,,,,,,,,,81,2.0965,1,0,24,24,35,1,9,×,9,9 × 9,neutral,tie,1,2,81,,,,,,,,
,,,,,,,,,,,,,,,830,2022-01-13_16h26.58.341,multiplicationStroop,2021.2.3,Win32,60.13229104,,,,,,,,,,,,,,,,,,,,,,,,,,,,,,,,,8,1.5507,1,0,25,25,23,1,4,×,2,4 × 2,congruent,largerFirst,2,1,8,,,,,,,,
,,,,,,,,,,,,,,,830,2022-01-13_16h26.58.341,multiplicationStroop,2021.2.3,Win32,60.13229104,,,,,,,,,,,,,,,,,,,,,,,,,,,,,,,,,28,1.963,1,0,26,26,13,1,4,×,7,4 × 7,congruent,smallerFirst,1,2,28,,,,,,,,
,,,,,,,,,,,,,,,830,2022-01-13_16h26.58.341,multiplicationStroop,2021.2.3,Win32,60.13229104,,,,,,,,,,,,,,,,,,,,,,,,,,,,,,,,,16,1.5154,1,0,27,27,30,1,4,×,4,4 × 4,neutral,tie,1,2,16,,,,,,,,
,,,,,,,,,,,,,,,830,2022-01-13_16h26.58.341,multiplicationStroop,2021.2.3,Win32,60.13229104,,,,,,,,,,,,,,,,,,,,,,,,,,,,,,,,,12,1.2982,1,0,28,28,16,1,4,×,3,4 × 3,congruent,largerFirst,2,1,12,,,,,,,,
,,,,,,,,,,,,,,,830,2022-01-13_16h26.58.341,multiplicationStroop,2021.2.3,Win32,60.13229104,,,,,,,,,,,,,,,,,,,,,,,,,,,,,,,,,25,1.6472,1,0,29,29,31,1,5,×,5,5 × 5,neutral,tie,1,2,25,,,,,,,,
,,,,,,,,,,,,,,,830,2022-01-13_16h26.58.341,multiplicationStroop,2021.2.3,Win32,60.13229104,,,,,,,,,,,,,,,,,,,,,,,,,,,,,,,,,18,1.5623,1,0,30,30,25,1,6,×,3,6 × 3,congruent,largerFirst,2,1,18,,,,,,,,
,,,,,,,,,,,,,,,830,2022-01-13_16h26.58.341,multiplicationStroop,2021.2.3,Win32,60.13229104,,,,,,,,,,,,,,,,,,,,,,,,,,,,,,,,,36,1.7138,1,0,31,31,32,1,6,×,6,6 × 6,neutral,tie,1,2,36,,,,,,,,
,,,,,,,,,,,,,,,830,2022-01-13_16h26.58.341,multiplicationStroop,2021.2.3,Win32,60.13229104,,,,,,,,,,,,,,,,,,,,,,,,,,,,,,,,,4,1.4632,1,0,32,32,28,1,2,×,2,2 × 2,neutral,tie,1,2,4,,,,,,,,
,,,,,,,,,,,,,,,830,2022-01-13_16h26.58.341,multiplicationStroop,2021.2.3,Win32,60.13229104,,,,,,,,,,,,,,,,,,,,,,,,,,,,,,,,,32,2.8303,1,0,33,33,6,1,4,×,8,4 × 8,congruent,smallerFirst,1,2,32,,,,,,,,
,,,,,,,,,,,,,,,830,2022-01-13_16h26.58.341,multiplicationStroop,2021.2.3,Win32,60.13229104,,,,,,,,,,,,,,,,,,,,,,,,,,,,,,,,,12,1.2975,1,0,34,34,5,1,2,×,6,2 × 6,congruent,smallerFirst,1,2,12,,,,,,,,
,,,,,,,,,,,,,,,830,2022-01-13_16h26.58.341,multiplicationStroop,2021.2.3,Win32,60.13229104,,,,,,,,,,,,,,,,,,,,,,,,,,,,,,,,,15,2.3127,1,0,35,35,18,1,5,×,3,5 × 3,congruent,largerFirst,2,1,15,,,,,,,,
,,,,,,,,,,,,,,,830,2022-01-13_16h26.58.341,multiplicationStroop,2021.2.3,Win32,60.13229104,,,,,,,,,,,,,,,,,,,,,,,,,,,,,,,,,,,,,,,,,,,,,,,,,,0,1,1,3,1,stimulusFile/mult_blk4_congruent.xlsx,,
,,,,,,,,,,,,,,,830,2022-01-13_16h26.58.341,multiplicationStroop,2021.2.3,Win32,60.13229104,,,,,,,,,,,,,,,,,,,,,,,,,,,,,,,space,2.0143,63,4.9663,1,0,0,0,12,1,7,×,9,7 × 9,neutral,smallerFirst,1.5,1.5,63,,,,,,,,
,,,,,,,,,,,,,,,830,2022-01-13_16h26.58.341,multiplicationStroop,2021.2.3,Win32,60.13229104,,,,,,,,,,,,,,,,,,,,,,,,,,,,,,,,,24,1.5333,1,0,1,1,2,1,4,×,6,4 × 6,neutral,smallerFirst,1.5,1.5,24,,,,,,,,
,,,,,,,,,,,,,,,830,2022-01-13_16h26.58.341,multiplicationStroop,2021.2.3,Win32,60.13229104,,,,,,,,,,,,,,,,,,,,,,,,,,,,,,,,,40,1.8805,1,0,2,2,24,1,8,×,5,8 × 5,neutral,largerFirst,1.5,1.5,40,,,,,,,,
,,,,,,,,,,,,,,,830,2022-01-13_16h26.58.341,multiplicationStroop,2021.2.3,Win32,60.13229104,,,,,,,,,,,,,,,,,,,,,,,,,,,,,,,,,81,1.6297,1,0,3,3,35,1,9,×,9,9 × 9,neutral,tie,1.5,1.5,81,,,,,,,,
,,,,,,,,,,,,,,,830,2022-01-13_16h26.58.341,multiplicationStroop,2021.2.3,Win32,60.13229104,,,,,,,,,,,,,,,,,,,,,,,,,,,,,,,,,27,1.6302,1,0,4,4,14,1,9,×,3,9 × 3,neutral,largerFirst,1.5,1.5,27,,,,,,,,
,,,,,,,,,,,,,,,830,2022-01-13_16h26.58.341,multiplicationStroop,2021.2.3,Win32,60.13229104,,,,,,,,,,,,,,,,,,,,,,,,,,,,,,,,,25,1.8642,1,0,5,5,31,1,5,×,5,5 × 5,neutral,tie,1.5,1.5,25,,,,,,,,
,,,,,,,,,,,,,,,830,2022-01-13_16h26.58.341,multiplicationStroop,2021.2.3,Win32,60.13229104,,,,,,,,,,,,,,,,,,,,,,,,,,,,,,,,,18,1.5967,1,0,6,6,0,1,3,×,6,3 × 6,neutral,smallerFirst,1.5,1.5,18,,,,,,,,
,,,,,,,,,,,,,,,830,2022-01-13_16h26.58.341,multiplicationStroop,2021.2.3,Win32,60.13229104,,,,,,,,,,,,,,,,,,,,,,,,,,,,,,,,,72,2.9788,1,0,7,7,11,1,8,×,9,8 × 9,neutral,smallerFirst,1.5,1.5,72,,,,,,,,
,,,,,,,,,,,,,,,830,2022-01-13_16h26.58.341,multiplicationStroop,2021.2.3,Win32,60.13229104,,,,,,,,,,,,,,,,,,,,,,,,,,,,,,,,,18,1.5489,1,0,8,8,18,1,9,×,2,9 × 2,neutral,largerFirst,1.5,1.5,18,,,,,,,,
,,,,,,,,,,,,,,,830,2022-01-13_16h26.58.341,multiplicationStroop,2021.2.3,Win32,60.13229104,,,,,,,,,,,,,,,,,,,,,,,,,,,,,,,,,32,1.5455,1,0,9,9,23,1,8,×,4,8 × 4,neutral,largerFirst,1.5,1.5,32,,,,,,,,
,,,,,,,,,,,,,,,830,2022-01-13_16h26.58.341,multiplicationStroop,2021.2.3,Win32,60.13229104,,,,,,,,,,,,,,,,,,,,,,,,,,,,,,,,,45,1.547,1,0,10,10,10,1,5,×,9,5 × 9,neutral,smallerFirst,1.5,1.5,45,,,,,,,,
,,,,,,,,,,,,,,,830,2022-01-13_16h26.58.341,multiplicationStroop,2021.2.3,Win32,60.13229104,,,,,,,,,,,,,,,,,,,,,,,,,,,,,,,,,9,1.4498,1,0,11,11,29,1,3,×,3,3 × 3,neutral,tie,1.5,1.5,9,,,,,,,,
,,,,,,,,,,,,,,,830,2022-01-13_16h26.58.341,multiplicationStroop,2021.2.3,Win32,60.13229104,,,,,,,,,,,,,,,,,,,,,,,,,,,,,,,,,12,1.287,1,0,12,12,25,1,6,×,2,6 × 2,neutral,largerFirst,1.5,1.5,12,,,,,,,,
,,,,,,,,,,,,,,,830,2022-01-13_16h26.58.341,multiplicationStroop,2021.2.3,Win32,60.13229104,,,,,,,,,,,,,,,,,,,,,,,,,,,,,,,,,36,1.8121,1,0,13,13,32,1,6,×,6,6 × 6,neutral,tie,1.5,1.5,36,,,,,,,,
,,,,,,,,,,,,,,,830,2022-01-13_16h26.58.341,multiplicationStroop,2021.2.3,Win32,60.13229104,,,,,,,,,,,,,,,,,,,,,,,,,,,,,,,,,48,2.2561,1,0,14,14,15,1,8,×,6,8 × 6,neutral,largerFirst,1.5,1.5,48,,,,,,,,
,,,,,,,,,,,,,,,830,2022-01-13_16h26.58.341,multiplicationStroop,2021.2.3,Win32,60.13229104,,,,,,,,,,,,,,,,,,,,,,,,,,,,,,,,,30,1.597,1,0,15,15,19,1,6,×,5,6 × 5,neutral,largerFirst,1.5,1.5,30,,,,,,,,
,,,,,,,,,,,,,,,830,2022-01-13_16h26.58.341,multiplicationStroop,2021.2.3,Win32,60.13229104,,,,,,,,,,,,,,,,,,,,,,,,,,,,,,,,,6,1.4307,1,0,16,16,26,1,3,×,2,3 × 2,neutral,largerFirst,1.5,1.5,6,,,,,,,,
,,,,,,,,,,,,,,,830,2022-01-13_16h26.58.341,multiplicationStroop,2021.2.3,Win32,60.13229104,,,,,,,,,,,,,,,,,,,,,,,,,,,,,,,,,36,2.1629,1,0,17,17,27,1,9,×,4,9 × 4,neutral,largerFirst,1.5,1.5,36,,,,,,,,
,,,,,,,,,,,,,,,830,2022-01-13_16h26.58.341,multiplicationStroop,2021.2.3,Win32,60.13229104,,,,,,,,,,,,,,,,,,,,,,,,,,,,,,,,,8,1.3641,1,0,18,18,3,1,2,×,4,2 × 4,neutral,smallerFirst,1.5,1.5,8,,,,,,,,
,,,,,,,,,,,,,,,830,2022-01-13_16h26.58.341,multiplicationStroop,2021.2.3,Win32,60.13229104,,,,,,,,,,,,,,,,,,,,,,,,,,,,,,,,,15,1.5475,1,0,19,19,5,1,3,×,5,3 × 5,neutral,smallerFirst,1.5,1.5,15,,,,,,,,
,,,,,,,,,,,,,,,830,2022-01-13_16h26.58.341,multiplicationStroop,2021.2.3,Win32,60.13229104,,,,,,,,,,,,,,,,,,,,,,,,,,,,,,,,,21,1.4803,1,0,20,20,8,1,3,×,7,3 × 7,neutral,smallerFirst,1.5,1.5,21,,,,,,,,
,,,,,,,,,,,,,,,830,2022-01-13_16h26.58.341,multiplicationStroop,2021.2.3,Win32,60.13229104,,,,,,,,,,,,,,,,,,,,,,,,,,,,,,,,,20,1.6492,1,0,21,21,20,1,5,×,4,5 × 4,neutral,largerFirst,1.5,1.5,20,,,,,,,,
,,,,,,,,,,,,,,,830,2022-01-13_16h26.58.341,multiplicationStroop,2021.2.3,Win32,60.13229104,,,,,,,,,,,,,,,,,,,,,,,,,,,,,,,,,16,1.5292,1,0,22,22,30,1,4,×,4,4 × 4,neutral,tie,1.5,1.5,16,,,,,,,,
,,,,,,,,,,,,,,,830,2022-01-13_16h26.58.341,multiplicationStroop,2021.2.3,Win32,60.13229104,,,,,,,,,,,,,,,,,,,,,,,,,,,,,,,,,10,1.5644,1,0,23,23,4,1,2,×,5,2 × 5,neutral,smallerFirst,1.5,1.5,10,,,,,,,,
,,,,,,,,,,,,,,,830,2022-01-13_16h26.58.341,multiplicationStroop,2021.2.3,Win32,60.13229104,,,,,,,,,,,,,,,,,,,,,,,,,,,,,,,,,16,1.6829,1,0,24,24,13,1,2,×,8,2 × 8,neutral,smallerFirst,1.5,1.5,16,,,,,,,,
,,,,,,,,,,,,,,,830,2022-01-13_16h26.58.341,multiplicationStroop,2021.2.3,Win32,60.13229104,,,,,,,,,,,,,,,,,,,,,,,,,,,,,,,,,28,1.9107,1,0,25,25,17,1,7,×,4,7 × 4,neutral,largerFirst,1.5,1.5,28,,,,,,,,
,,,,,,,,,,,,,,,830,2022-01-13_16h26.58.341,multiplicationStroop,2021.2.3,Win32,60.13229104,,,,,,,,,,,,,,,,,,,,,,,,,,,,,,,,,35,1.6637,1,0,26,26,1,1,5,×,7,5 × 7,neutral,smallerFirst,1.5,1.5,35,,,,,,,,
,,,,,,,,,,,,,,,830,2022-01-13_16h26.58.341,multiplicationStroop,2021.2.3,Win32,60.13229104,,,,,,,,,,,,,,,,,,,,,,,,,,,,,,,,,12,1.414,1,0,27,27,21,1,4,×,3,4 × 3,neutral,largerFirst,1.5,1.5,12,,,,,,,,
,,,,,,,,,,,,,,,830,2022-01-13_16h26.58.341,multiplicationStroop,2021.2.3,Win32,60.13229104,,,,,,,,,,,,,,,,,,,,,,,,,,,,,,,,,4,1.3299,1,0,28,28,28,1,2,×,2,2 × 2,neutral,tie,1.5,1.5,4,,,,,,,,
,,,,,,,,,,,,,,,830,2022-01-13_16h26.58.341,multiplicationStroop,2021.2.3,Win32,60.13229104,,,,,,,,,,,,,,,,,,,,,,,,,,,,,,,,,42,1.8473,1,0,29,29,6,1,6,×,7,6 × 7,neutral,smallerFirst,1.5,1.5,42,,,,,,,,
,,,,,,,,,,,,,,,830,2022-01-13_16h26.58.341,multiplicationStroop,2021.2.3,Win32,60.13229104,,,,,,,,,,,,,,,,,,,,,,,,,,,,,,,,,56,2.063,1,0,30,30,9,1,7,×,8,7 × 8,neutral,smallerFirst,1.5,1.5,56,,,,,,,,
,,,,,,,,,,,,,,,830,2022-01-13_16h26.58.341,multiplicationStroop,2021.2.3,Win32,60.13229104,,,,,,,,,,,,,,,,,,,,,,,,,,,,,,,,,53,6.4765,0,0,31,31,7,1,6,×,9,6 × 9,neutral,smallerFirst,1.5,1.5,54,,,,,,,,
,,,,,,,,,,,,,,,830,2022-01-13_16h26.58.341,multiplicationStroop,2021.2.3,Win32,60.13229104,,,,,,,,,,,,,,,,,,,,,,,,,,,,,,,,,14,1.4338,1,0,32,32,16,1,7,×,2,7 × 2,neutral,largerFirst,1.5,1.5,14,,,,,,,,
,,,,,,,,,,,,,,,830,2022-01-13_16h26.58.341,multiplicationStroop,2021.2.3,Win32,60.13229104,,,,,,,,,,,,,,,,,,,,,,,,,,,,,,,,,64,2.1982,1,0,33,33,34,1,8,×,8,8 × 8,neutral,tie,1.5,1.5,64,,,,,,,,
,,,,,,,,,,,,,,,830,2022-01-13_16h26.58.341,multiplicationStroop,2021.2.3,Win32,60.13229104,,,,,,,,,,,,,,,,,,,,,,,,,,,,,,,,,24,1.5959,1,0,34,34,22,1,8,×,3,8 × 3,neutral,largerFirst,1.5,1.5,24,,,,,,,,
,,,,,,,,,,,,,,,830,2022-01-13_16h26.58.341,multiplicationStroop,2021.2.3,Win32,60.13229104,,,,,,,,,,,,,,,,,,,,,,,,,,,,,,,,,49,1.9151,1,0,35,35,33,1,7,×,7,7 × 7,neutral,tie,1.5,1.5,49,,,,,,,,
,,,,,,,,,,,,,,,830,2022-01-13_16h26.58.341,multiplicationStroop,2021.2.3,Win32,60.13229104,,,,,,,,,,,,,,,,,,,,,,,,,,,,,,,,,,,,,,,,,,,,,,,,,,0,2,2,1,1,stimulusFile/mult_blk2.xlsx,,
,,,,,,,,,,,,,,,830,2022-01-13_16h26.58.341,multiplicationStroop,2021.2.3,Win32,60.13229104,,,,,,,,,,,,,,,,,,,,,,,,,,,,,,,space,1.5382,10,1.5428,1,0,0,0,7,1,2,×,5,2 × 5,incongruent,smallerFirst,2,1,10,,,,,,,,
,,,,,,,,,,,,,,,830,2022-01-13_16h26.58.341,multiplicationStroop,2021.2.3,Win32,60.13229104,,,,,,,,,,,,,,,,,,,,,,,,,,,,,,,,,35,1.7131,1,0,1,1,26,1,7,×,5,7 × 5,incongruent,largerFirst,1,2,35,,,,,,,,
,,,,,,,,,,,,,,,830,2022-01-13_16h26.58.341,multiplicationStroop,2021.2.3,Win32,60.13229104,,,,,,,,,,,,,,,,,,,,,,,,,,,,,,,,,12,1.3548,1,0,2,2,5,1,2,×,6,2 × 6,incongruent,smallerFirst,2,1,12,,,,,,,,
,,,,,,,,,,,,,,,830,2022-01-13_16h26.58.341,multiplicationStroop,2021.2.3,Win32,60.13229104,,,,,,,,,,,,,,,,,,,,,,,,,,,,,,,,,72,2.7628,1,0,3,3,14,1,9,×,8,9 × 8,incongruent,largerFirst,1,2,72,,,,,,,,
,,,,,,,,,,,,,,,830,2022-01-13_16h26.58.341,multiplicationStroop,2021.2.3,Win32,60.13229104,,,,,,,,,,,,,,,,,,,,,,,,,,,,,,,,,45,1.4982,1,0,4,4,8,1,5,×,9,5 × 9,incongruent,smallerFirst,2,1,45,,,,,,,,
,,,,,,,,,,,,,,,830,2022-01-13_16h26.58.341,multiplicationStroop,2021.2.3,Win32,60.13229104,,,,,,,,,,,,,,,,,,,,,,,,,,,,,,,,,36,1.7476,1,0,5,5,1,1,4,×,9,4 × 9,incongruent,smallerFirst,2,1,36,,,,,,,,
,,,,,,,,,,,,,,,830,2022-01-13_16h26.58.341,multiplicationStroop,2021.2.3,Win32,60.13229104,,,,,,,,,,,,,,,,,,,,,,,,,,,,,,,,,24,1.5482,1,0,6,6,23,1,8,×,3,8 × 3,incongruent,largerFirst,1,2,24,,,,,,,,
,,,,,,,,,,,,,,,830,2022-01-13_16h26.58.341,multiplicationStroop,2021.2.3,Win32,60.13229104,,,,,,,,,,,,,,,,,,,,,,,,,,,,,,,,,42,2.0953,1,0,7,7,3,1,6,×,7,6 × 7,incongruent,smallerFirst,2,1,42,,,,,,,,
,,,,,,,,,,,,,,,830,2022-01-13_16h26.58.341,multiplicationStroop,2021.2.3,Win32,60.13229104,,,,,,,,,,,,,,,,,,,,,,,,,,,,,,,,,16,1.6143,1,0,8,8,30,1,4,×,4,4 × 4,neutral,tie,2,1,16,,,,,,,,
,,,,,,,,,,,,,,,830,2022-01-13_16h26.58.341,multiplicationStroop,2021.2.3,Win32,60.13229104,,,,,,,,,,,,,,,,,,,,,,,,,,,,,,,,,24,1.4247,1,0,9,9,6,1,4,×,6,4 × 6,incongruent,smallerFirst,2,1,24,,,,,,,,
,,,,,,,,,,,,,,,830,2022-01-13_16h26.58.341,multiplicationStroop,2021.2.3,Win32,60.13229104,,,,,,,,,,,,,,,,,,,,,,,,,,,,,,,,,49,2.2963,1,0,10,10,33,1,7,×,7,7 × 7,neutral,tie,2,1,49,,,,,,,,
,,,,,,,,,,,,,,,830,2022-01-13_16h26.58.341,multiplicationStroop,2021.2.3,Win32,60.13229104,,,,,,,,,,,,,,,,,,,,,,,,,,,,,,,,,27,1.7469,1,0,11,11,4,1,3,×,9,3 × 9,incongruent,smallerFirst,2,1,27,,,,,,,,
,,,,,,,,,,,,,,,830,2022-01-13_16h26.58.341,multiplicationStroop,2021.2.3,Win32,60.13229104,,,,,,,,,,,,,,,,,,,,,,,,,,,,,,,,,28,5.2774,1,0,12,12,2,1,4,×,7,4 × 7,incongruent,smallerFirst,2,1,28,,,,,,,,
,,,,,,,,,,,,,,,830,2022-01-13_16h26.58.341,multiplicationStroop,2021.2.3,Win32,60.13229104,,,,,,,,,,,,,,,,,,,,,,,,,,,,,,,,,18,1.6831,1,0,13,13,16,1,9,×,2,9 × 2,incongruent,largerFirst,1,2,18,,,,,,,,
,,,,,,,,,,,,,,,830,2022-01-13_16h26.58.341,multiplicationStroop,2021.2.3,Win32,60.13229104,,,,,,,,,,,,,,,,,,,,,,,,,,,,,,,,,36,1.6634,1,0,14,14,32,1,6,×,6,6 × 6,neutral,tie,2,1,36,,,,,,,,
,,,,,,,,,,,,,,,830,2022-01-13_16h26.58.341,multiplicationStroop,2021.2.3,Win32,60.13229104,,,,,,,,,,,,,,,,,,,,,,,,,,,,,,,,,56,6.8107,1,0,15,15,0,1,7,×,8,7 × 8,incongruent,smallerFirst,2,1,56,,,,,,,,
,,,,,,,,,,,,,,,830,2022-01-13_16h26.58.341,multiplicationStroop,2021.2.3,Win32,60.13229104,,,,,,,,,,,,,,,,,,,,,,,,,,,,,,,,,40,1.7647,1,0,16,16,27,1,8,×,5,8 × 5,incongruent,largerFirst,1,2,40,,,,,,,,
,,,,,,,,,,,,,,,830,2022-01-13_16h26.58.341,multiplicationStroop,2021.2.3,Win32,60.13229104,,,,,,,,,,,,,,,,,,,,,,,,,,,,,,,,,25,1.5476,1,0,17,17,31,1,5,×,5,5 × 5,neutral,tie,2,1,25,,,,,,,,
,,,,,,,,,,,,,,,830,2022-01-13_16h26.58.341,multiplicationStroop,2021.2.3,Win32,60.13229104,,,,,,,,,,,,,,,,,,,,,,,,,,,,,,,,,15,1.5462,1,0,18,18,24,1,5,×,3,5 × 3,incongruent,largerFirst,1,2,15,,,,,,,,
,,,,,,,,,,,,,,,830,2022-01-13_16h26.58.341,multiplicationStroop,2021.2.3,Win32,60.13229104,,,,,,,,,,,,,,,,,,,,,,,,,,,,,,,,,14,1.3801,1,0,19,19,18,1,7,×,2,7 × 2,incongruent,largerFirst,1,2,14,,,,,,,,
,,,,,,,,,,,,,,,830,2022-01-13_16h26.58.341,multiplicationStroop,2021.2.3,Win32,60.13229104,,,,,,,,,,,,,,,,,,,,,,,,,,,,,,,,,64,1.8142,1,0,20,20,34,1,8,×,8,8 × 8,neutral,tie,2,1,64,,,,,,,,
,,,,,,,,,,,,,,,830,2022-01-13_16h26.58.341,multiplicationStroop,2021.2.3,Win32,60.13229104,,,,,,,,,,,,,,,,,,,,,,,,,,,,,,,,,30,1.6635,1,0,21,21,11,1,5,×,6,5 × 6,incongruent,smallerFirst,2,1,30,,,,,,,,
,,,,,,,,,,,,,,,830,2022-01-13_16h26.58.341,multiplicationStroop,2021.2.3,Win32,60.13229104,,,,,,,,,,,,,,,,,,,,,,,,,,,,,,,,,8,1.6803,1,0,22,22,10,1,2,×,4,2 × 4,incongruent,smallerFirst,2,1,8,,,,,,,,
,,,,,,,,,,,,,,,830,2022-01-13_16h26.58.341,multiplicationStroop,2021.2.3,Win32,60.13229104,,,,,,,,,,,,,,,,,,,,,,,,,,,,,,,,,32,1.4971,1,0,23,23,21,1,8,×,4,8 × 4,incongruent,largerFirst,1,2,32,,,,,,,,
,,,,,,,,,,,,,,,830,2022-01-13_16h26.58.341,multiplicationStroop,2021.2.3,Win32,60.13229104,,,,,,,,,,,,,,,,,,,,,,,,,,,,,,,,,21,1.5323,1,0,24,24,12,1,3,×,7,3 × 7,incongruent,smallerFirst,2,1,21,,,,,,,,
,,,,,,,,,,,,,,,830,2022-01-13_16h26.58.341,multiplicationStroop,2021.2.3,Win32,60.13229104,,,,,,,,,,,,,,,,,,,,,,,,,,,,,,,,,81,2.7934,1,0,25,25,35,1,9,×,9,9 × 9,neutral,tie,2,1,81,,,,,,,,
,,,,,,,,,,,,,,,830,2022-01-13_16h26.58.341,multiplicationStroop,2021.2.3,Win32,60.13229104,,,,,,,,,,,,,,,,,,,,,,,,,,,,,,,,,63,4.4145,1,0,26,26,17,1,9,×,7,9 × 7,incongruent,largerFirst,1,2,63,,,,,,,,
,,,,,,,,,,,,,,,830,2022-01-13_16h26.58.341,multiplicationStroop,2021.2.3,Win32,60.13229104,,,,,,,,,,,,,,,,,,,,,,,,,,,,,,,,,16,1.5849,1,0,27,27,9,1,2,×,8,2 × 8,incongruent,smallerFirst,2,1,16,,,,,,,,
,,,,,,,,,,,,,,,830,2022-01-13_16h26.58.341,multiplicationStroop,2021.2.3,Win32,60.13229104,,,,,,,,,,,,,,,,,,,,,,,,,,,,,,,,,9,1.3801,1,0,28,28,29,1,3,×,3,3 × 3,neutral,tie,2,1,9,,,,,,,,
,,,,,,,,,,,,,,,830,2022-01-13_16h26.58.341,multiplicationStroop,2021.2.3,Win32,60.13229104,,,,,,,,,,,,,,,,,,,,,,,,,,,,,,,,,12,1.297,1,0,29,29,19,1,4,×,3,4 × 3,incongruent,largerFirst,1,2,12,,,,,,,,
,,,,,,,,,,,,,,,830,2022-01-13_16h26.58.341,multiplicationStroop,2021.2.3,Win32,60.13229104,,,,,,,,,,,,,,,,,,,,,,,,,,,,,,,,,6,1.7137,1,0,30,30,25,1,3,×,2,3 × 2,incongruent,largerFirst,1,2,6,,,,,,,,
,,,,,,,,,,,,,,,830,2022-01-13_16h26.58.341,multiplicationStroop,2021.2.3,Win32,60.13229104,,,,,,,,,,,,,,,,,,,,,,,,,,,,,,,,,54,2.5295,1,0,31,31,20,1,9,×,6,9 × 6,incongruent,largerFirst,1,2,54,,,,,,,,
,,,,,,,,,,,,,,,830,2022-01-13_16h26.58.341,multiplicationStroop,2021.2.3,Win32,60.13229104,,,,,,,,,,,,,,,,,,,,,,,,,,,,,,,,,4,1.4469,1,0,32,32,28,1,2,×,2,2 × 2,neutral,tie,2,1,4,,,,,,,,
,,,,,,,,,,,,,,,830,2022-01-13_16h26.58.341,multiplicationStroop,2021.2.3,Win32,60.13229104,,,,,,,,,,,,,,,,,,,,,,,,,,,,,,,,,48,2.8468,1,0,33,33,15,1,8,×,6,8 × 6,incongruent,largerFirst,1,2,48,,,,,,,,
,,,,,,,,,,,,,,,830,2022-01-13_16h26.58.341,multiplicationStroop,2021.2.3,Win32,60.13229104,,,,,,,,,,,,,,,,,,,,,,,,,,,,,,,,,20,1.7796,1,0,34,34,13,1,4,×,5,4 × 5,incongruent,smallerFirst,2,1,20,,,,,,,,
,,,,,,,,,,,,,,,830,2022-01-13_16h26.58.341,multiplicationStroop,2021.2.3,Win32,60.13229104,,,,,,,,,,,,,,,,,,,,,,,,,,,,,,,,,18,1.5638,1,0,35,35,22,1,6,×,3,6 × 3,incongruent,largerFirst,1,2,18,,,,,,,,
,,,,,,,,,,,,,,,830,2022-01-13_16h26.58.341,multiplicationStroop,2021.2.3,Win32,60.13229104,,,,,,,,,,,,,,,,,,,,,,,,,,,,,,,,,,,,,,,,,,,,,,,,,,0,3,3,4,1,stimulusFile/mult_blk5_INcongruent.xlsx,,
,,,,,,,,,,,,,,,830,2022-01-13_16h26.58.341,multiplicationStroop,2021.2.3,Win32,60.13229104,,,,,,,,,,,,,,,,,,,,,,,,,,,,,,,space,1.348,12,2.0099,1,0,0,0,2,1,3,×,4,3 × 4,congruent,smallerFirst,1,2,12,,,,,,,,
,,,,,,,,,,,,,,,830,2022-01-13_16h26.58.341,multiplicationStroop,2021.2.3,Win32,60.13229104,,,,,,,,,,,,,,,,,,,,,,,,,,,,,,,,,12,1.3306,1,0,1,1,19,1,6,×,2,6 × 2,congruent,largerFirst,2,1,12,,,,,,,,
,,,,,,,,,,,,,,,830,2022-01-13_16h26.58.341,multiplicationStroop,2021.2.3,Win32,60.13229104,,,,,,,,,,,,,,,,,,,,,,,,,,,,,,,,,9,1.4138,1,0,2,2,29,1,3,×,3,3 × 3,neutral,tie,2,1,9,,,,,,,,
,,,,,,,,,,,,,,,830,2022-01-13_16h26.58.341,multiplicationStroop,2021.2.3,Win32,60.13229104,,,,,,,,,,,,,,,,,,,,,,,,,,,,,,,,,21,1.4993,1,0,3,3,16,1,7,×,3,7 × 3,congruent,largerFirst,2,1,21,,,,,,,,
,,,,,,,,,,,,,,,830,2022-01-13_16h26.58.341,multiplicationStroop,2021.2.3,Win32,60.13229104,,,,,,,,,,,,,,,,,,,,,,,,,,,,,,,,,15,1.4285,1,0,4,4,4,1,3,×,5,3 × 5,congruent,smallerFirst,1,2,15,,,,,,,,
,,,,,,,,,,,,,,,830,2022-01-13_16h26.58.341,multiplicationStroop,2021.2.3,Win32,60.13229104,,,,,,,,,,,,,,,,,,,,,,,,,,,,,,,,,45,1.6155,1,0,5,5,23,1,9,×,5,9 × 5,congruent,largerFirst,2,1,45,,,,,,,,
,,,,,,,,,,,,,,,830,2022-01-13_16h26.58.341,multiplicationStroop,2021.2.3,Win32,60.13229104,,,,,,,,,,,,,,,,,,,,,,,,,,,,,,,,,24,1.7291,1,0,6,6,10,1,3,×,8,3 × 8,congruent,smallerFirst,1,2,24,,,,,,,,
,,,,,,,,,,,,,,,830,2022-01-13_16h26.58.341,multiplicationStroop,2021.2.3,Win32,60.13229104,,,,,,,,,,,,,,,,,,,,,,,,,,,,,,,,,35,2.0462,1,0,7,7,1,1,5,×,7,5 × 7,congruent,smallerFirst,1,2,35,,,,,,,,
,,,,,,,,,,,,,,,830,2022-01-13_16h26.58.341,multiplicationStroop,2021.2.3,Win32,60.13229104,,,,,,,,,,,,,,,,,,,,,,,,,,,,,,,,,24,1.6639,1,0,8,8,25,1,6,×,4,6 × 4,congruent,largerFirst,2,1,24,,,,,,,,
,,,,,,,,,,,,,,,830,2022-01-13_16h26.58.341,multiplicationStroop,2021.2.3,Win32,60.13229104,,,,,,,,,,,,,,,,,,,,,,,,,,,,,,,,,10,1.5964,1,0,9,9,24,1,5,×,2,5 × 2,congruent,largerFirst,2,1,10,,,,,,,,
,,,,,,,,,,,,,,,830,2022-01-13_16h26.58.341,multiplicationStroop,2021.2.3,Win32,60.13229104,,,,,,,,,,,,,,,,,,,,,,,,,,,,,,,,,14,1.4144,1,0,10,10,14,1,7,×,2,7 × 2,congruent,largerFirst,2,1,14,,,,,,,,
,,,,,,,,,,,,,,,830,2022-01-13_16h26.58.341,multiplicationStroop,2021.2.3,Win32,60.13229104,,,,,,,,,,,,,,,,,,,,,,,,,,,,,,,,,16,1.5302,1,0,11,11,5,1,2,×,8,2 × 8,congruent,smallerFirst,1,2,16,,,,,,,,
,,,,,,,,,,,,,,,830,2022-01-13_16h26.58.341,multiplicationStroop,2021.2.3,Win32,60.13229104,,,,,,,,,,,,,,,,,,,,,,,,,,,,,,,,,20,1.6139,1,0,12,12,7,1,4,×,5,4 × 5,congruent,smallerFirst,1,2,20,,,,,,,,
,,,,,,,,,,,,,,,830,2022-01-13_16h26.58.341,multiplicationStroop,2021.2.3,Win32,60.13229104,,,,,,,,,,,,,,,,,,,,,,,,,,,,,,,,,56,1.8132,1,0,13,13,8,1,7,×,8,7 × 8,congruent,smallerFirst,1,2,56,,,,,,,,
,,,,,,,,,,,,,,,830,2022-01-13_16h26.58.341,multiplicationStroop,2021.2.3,Win32,60.13229104,,,,,,,,,,,,,,,,,,,,,,,,,,,,,,,,,56,3.1952,0,0,14,14,12,1,6,×,9,6 × 9,congruent,smallerFirst,1,2,54,,,,,,,,
,,,,,,,,,,,,,,,830,2022-01-13_16h26.58.341,multiplicationStroop,2021.2.3,Win32,60.13229104,,,,,,,,,,,,,,,,,,,,,,,,,,,,,,,,,27,1.8481,1,0,15,15,26,1,9,×,3,9 × 3,congruent,largerFirst,2,1,27,,,,,,,,
,,,,,,,,,,,,,,,830,2022-01-13_16h26.58.341,multiplicationStroop,2021.2.3,Win32,60.13229104,,,,,,,,,,,,,,,,,,,,,,,,,,,,,,,,,25,1.5625,1,0,16,16,31,1,5,×,5,5 × 5,neutral,tie,2,1,25,,,,,,,,
,,,,,,,,,,,,,,,830,2022-01-13_16h26.58.341,multiplicationStroop,2021.2.3,Win32,60.13229104,,,,,,,,,,,,,,,,,,,,,,,,,,,,,,,,,8,1.4811,1,0,17,17,9,1,2,×,4,2 × 4,congruent,smallerFirst,1,2,8,,,,,,,,
,,,,,,,,,,,,,,,830,2022-01-13_16h26.58.341,multiplicationStroop,2021.2.3,Win32,60.13229104,,,,,,,,,,,,,,,,,,,,,,,,,,,,,,,,,42,2.0464,1,0,18,18,3,1,6,×,7,6 × 7,congruent,smallerFirst,1,2,42,,,,,,,,
,,,,,,,,,,,,,,,830,2022-01-13_16h26.58.341,multiplicationStroop,2021.2.3,Win32,60.13229104,,,,,,,,,,,,,,,,,,,,,,,,,,,,,,,,,36,1.8134,1,0,19,19,0,1,4,×,9,4 × 9,congruent,smallerFirst,1,2,36,,,,,,,,
,,,,,,,,,,,,,,,830,2022-01-13_16h26.58.341,multiplicationStroop,2021.2.3,Win32,60.13229104,,,,,,,,,,,,,,,,,,,,,,,,,,,,,,,,,40,1.7652,1,0,20,20,6,1,5,×,8,5 × 8,congruent,smallerFirst,1,2,40,,,,,,,,
,,,,,,,,,,,,,,,830,2022-01-13_16h26.58.341,multiplicationStroop,2021.2.3,Win32,60.13229104,,,,,,,,,,,,,,,,,,,,,,,,,,,,,,,,,30,1.7627,1,0,21,21,15,1,6,×,5,6 × 5,congruent,largerFirst,2,1,30,,,,,,,,
,,,,,,,,,,,,,,,830,2022-01-13_16h26.58.341,multiplicationStroop,2021.2.3,Win32,60.13229104,,,,,,,,,,,,,,,,,,,,,,,,,,,,,,,,,63,7.8574,1,0,22,22,21,1,9,×,7,9 × 7,congruent,largerFirst,2,1,63,,,,,,,,
,,,,,,,,,,,,,,,830,2022-01-13_16h26.58.341,multiplicationStroop,2021.2.3,Win32,60.13229104,,,,,,,,,,,,,,,,,,,,,,,,,,,,,,,,,4,1.317,1,0,23,23,28,1,2,×,2,2 × 2,neutral,tie,2,1,4,,,,,,,,
,,,,,,,,,,,,,,,830,2022-01-13_16h26.58.341,multiplicationStroop,2021.2.3,Win32,60.13229104,,,,,,,,,,,,,,,,,,,,,,,,,,,,,,,,,49,2.2634,1,0,24,24,33,1,7,×,7,7 × 7,neutral,tie,2,1,49,,,,,,,,
,,,,,,,,,,,,,,,830,2022-01-13_16h26.58.341,multiplicationStroop,2021.2.3,Win32,60.13229104,,,,,,,,,,,,,,,,,,,,,,,,,,,,,,,,,81,1.9966,1,0,25,25,35,1,9,×,9,9 × 9,neutral,tie,2,1,81,,,,,,,,
,,,,,,,,,,,,,,,830,2022-01-13_16h26.58.341,multiplicationStroop,2021.2.3,Win32,60.13229104,,,,,,,,,,,,,,,,,,,,,,,,,,,,,,,,,28,2.0135,1,0,26,26,27,1,7,×,4,7 × 4,congruent,largerFirst,2,1,28,,,,,,,,
,,,,,,,,,,,,,,,830,2022-01-13_16h26.58.341,multiplicationStroop,2021.2.3,Win32,60.13229104,,,,,,,,,,,,,,,,,,,,,,,,,,,,,,,,,18,1.7646,1,0,27,27,11,1,3,×,6,3 × 6,congruent,smallerFirst,1,2,18,,,,,,,,
,,,,,,,,,,,,,,,830,2022-01-13_16h26.58.341,multiplicationStroop,2021.2.3,Win32,60.13229104,,,,,,,,,,,,,,,,,,,,,,,,,,,,,,,,,72,3.5476,1,0,28,28,17,1,9,×,8,9 × 8,congruent,largerFirst,2,1,72,,,,,,,,
,,,,,,,,,,,,,,,830,2022-01-13_16h26.58.341,multiplicationStroop,2021.2.3,Win32,60.13229104,,,,,,,,,,,,,,,,,,,,,,,,,,,,,,,,,16,1.6139,1,0,29,29,30,1,4,×,4,4 × 4,neutral,tie,2,1,16,,,,,,,,
,,,,,,,,,,,,,,,830,2022-01-13_16h26.58.341,multiplicationStroop,2021.2.3,Win32,60.13229104,,,,,,,,,,,,,,,,,,,,,,,,,,,,,,,,,64,2.3458,1,0,30,30,34,1,8,×,8,8 × 8,neutral,tie,2,1,64,,,,,,,,
,,,,,,,,,,,,,,,830,2022-01-13_16h26.58.341,multiplicationStroop,2021.2.3,Win32,60.13229104,,,,,,,,,,,,,,,,,,,,,,,,,,,,,,,,,32,1.614,1,0,31,31,20,1,8,×,4,8 × 4,congruent,largerFirst,2,1,32,,,,,,,,
,,,,,,,,,,,,,,,830,2022-01-13_16h26.58.341,multiplicationStroop,2021.2.3,Win32,60.13229104,,,,,,,,,,,,,,,,,,,,,,,,,,,,,,,,,36,2.0473,1,0,32,32,32,1,6,×,6,6 × 6,neutral,tie,2,1,36,,,,,,,,
,,,,,,,,,,,,,,,830,2022-01-13_16h26.58.341,multiplicationStroop,2021.2.3,Win32,60.13229104,,,,,,,,,,,,,,,,,,,,,,,,,,,,,,,,,46,3.497,0,0,33,33,18,1,8,×,6,8 × 6,congruent,largerFirst,2,1,48,,,,,,,,
,,,,,,,,,,,,,,,830,2022-01-13_16h26.58.341,multiplicationStroop,2021.2.3,Win32,60.13229104,,,,,,,,,,,,,,,,,,,,,,,,,,,,,,,,,6,2.0313,1,0,34,34,13,1,2,×,3,2 × 3,congruent,smallerFirst,1,2,6,,,,,,,,
,,,,,,,,,,,,,,,830,2022-01-13_16h26.58.341,multiplicationStroop,2021.2.3,Win32,60.13229104,,,,,,,,,,,,,,,,,,,,,,,,,,,,,,,,,18,1.6814,1,0,35,35,22,1,9,×,2,9 × 2,congruent,largerFirst,2,1,18,,,,,,,,
,,,,,,,,,,,,,,,830,2022-01-13_16h26.58.341,multiplicationStroop,2021.2.3,Win32,60.13229104,,,,,,,,,,,,,,,,,,,,,,,,,,,,,,,,,,,,,,,,,,,,,,,,,,0,4,4,2,1,stimulusFile/mult_blk3_congruent.xlsx,,
,,,,,,,,,,,,,,,830,2022-01-13_16h26.58.341,multiplicationStroop,2021.2.3,Win32,60.13229104,,,,,,,,,,,,,,,,,,,,,,,,,,,,,,,space,1.1429,53,5.8232,0,0,0,0,21,1,9,×,6,9 × 6,neutral,largerFirst,1.5,1.5,54,,,,,,,,
,,,,,,,,,,,,,,,830,2022-01-13_16h26.58.341,multiplicationStroop,2021.2.3,Win32,60.13229104,,,,,,,,,,,,,,,,,,,,,,,,,,,,,,,,,12,1.5361,1,0,1,1,7,1,3,×,4,3 × 4,neutral,smallerFirst,1.5,1.5,12,,,,,,,,
,,,,,,,,,,,,,,,830,2022-01-13_16h26.58.341,multiplicationStroop,2021.2.3,Win32,60.13229104,,,,,,,,,,,,,,,,,,,,,,,,,,,,,,,,,4,1.3352,1,0,2,2,28,1,2,×,2,2 × 2,neutral,tie,1.5,1.5,4,,,,,,,,
,,,,,,,,,,,,,,,830,2022-01-13_16h26.58.341,multiplicationStroop,2021.2.3,Win32,60.13229104,,,,,,,,,,,,,,,,,,,,,,,,,,,,,,,,,16,2.7966,1,0,3,3,27,1,8,×,2,8 × 2,neutral,largerFirst,1.5,1.5,16,,,,,,,,
,,,,,,,,,,,,,,,830,2022-01-13_16h26.58.341,multiplicationStroop,2021.2.3,Win32,60.13229104,,,,,,,,,,,,,,,,,,,,,,,,,,,,,,,,,81,2.1996,1,0,4,4,35,1,9,×,9,9 × 9,neutral,tie,1.5,1.5,81,,,,,,,,
,,,,,,,,,,,,,,,830,2022-01-13_16h26.58.341,multiplicationStroop,2021.2.3,Win32,60.13229104,,,,,,,,,,,,,,,,,,,,,,,,,,,,,,,,,64,2.2465,1,0,5,5,34,1,8,×,8,8 × 8,neutral,tie,1.5,1.5,64,,,,,,,,
,,,,,,,,,,,,,,,830,2022-01-13_16h26.58.341,multiplicationStroop,2021.2.3,Win32,60.13229104,,,,,,,,,,,,,,,,,,,,,,,,,,,,,,,,,12,1.3314,1,0,6,6,11,1,2,×,6,2 × 6,neutral,smallerFirst,1.5,1.5,12,,,,,,,,
,,,,,,,,,,,,,,,830,2022-01-13_16h26.58.341,multiplicationStroop,2021.2.3,Win32,60.13229104,,,,,,,,,,,,,,,,,,,,,,,,,,,,,,,,,40,1.7646,1,0,7,7,10,1,5,×,8,5 × 8,neutral,smallerFirst,1.5,1.5,40,,,,,,,,
,,,,,,,,,,,,,,,830,2022-01-13_16h26.58.341,multiplicationStroop,2021.2.3,Win32,60.13229104,,,,,,,,,,,,,,,,,,,,,,,,,,,,,,,,,24,1.4812,1,0,8,8,8,1,3,×,8,3 × 8,neutral,smallerFirst,1.5,1.5,24,,,,,,,,
,,,,,,,,,,,,,,,830,2022-01-13_16h26.58.341,multiplicationStroop,2021.2.3,Win32,60.13229104,,,,,,,,,,,,,,,,,,,,,,,,,,,,,,,,,28,3.1398,1,0,9,9,3,1,4,×,7,4 × 7,neutral,smallerFirst,1.5,1.5,28,,,,,,,,
,,,,,,,,,,,,,,,830,2022-01-13_16h26.58.341,multiplicationStroop,2021.2.3,Win32,60.13229104,,,,,,,,,,,,,,,,,,,,,,,,,,,,,,,,,48,3.7962,1,0,10,10,1,1,6,×,8,6 × 8,neutral,smallerFirst,1.5,1.5,48,,,,,,,,
,,,,,,,,,,,,,,,830,2022-01-13_16h26.58.341,multiplicationStroop,2021.2.3,Win32,60.13229104,,,,,,,,,,,,,,,,,,,,,,,,,,,,,,,,,24,1.6342,0,0,11,11,9,1,4,×,8,4 × 8,neutral,smallerFirst,1.5,1.5,32,,,,,,,,
,,,,,,,,,,,,,,,830,2022-01-13_16h26.58.341,multiplicationStroop,2021.2.3,Win32,60.13229104,,,,,,,,,,,,,,,,,,,,,,,,,,,,,,,,,16,1.5647,1,0,12,12,30,1,4,×,4,4 × 4,neutral,tie,1.5,1.5,16,,,,,,,,
,,,,,,,,,,,,,,,830,2022-01-13_16h26.58.341,multiplicationStroop,2021.2.3,Win32,60.13229104,,,,,,,,,,,,,,,,,,,,,,,,,,,,,,,,,56,4.8931,1,0,13,13,23,1,8,×,7,8 × 7,neutral,largerFirst,1.5,1.5,56,,,,,,,,
,,,,,,,,,,,,,,,830,2022-01-13_16h26.58.341,multiplicationStroop,2021.2.3,Win32,60.13229104,,,,,,,,,,,,,,,,,,,,,,,,,,,,,,,,,27,1.6676,1,0,14,14,0,1,3,×,9,3 × 9,neutral,smallerFirst,1.5,1.5,27,,,,,,,,
,,,,,,,,,,,,,,,830,2022-01-13_16h26.58.341,multiplicationStroop,2021.2.3,Win32,60.13229104,,,,,,,,,,,,,,,,,,,,,,,,,,,,,,,,,35,1.5639,1,0,15,15,15,1,7,×,5,7 × 5,neutral,largerFirst,1.5,1.5,35,,,,,,,,
,,,,,,,,,,,,,,,830,2022-01-13_16h26.58.341,multiplicationStroop,2021.2.3,Win32,60.13229104,,,,,,,,,,,,,,,,,,,,,,,,,,,,,,,,,18,1.7967,1,0,16,16,14,1,6,×,3,6 × 3,neutral,largerFirst,1.5,1.5,18,,,,,,,,
,,,,,,,,,,,,,,,830,2022-01-13_16h26.58.341,multiplicationStroop,2021.2.3,Win32,60.13229104,,,,,,,,,,,,,,,,,,,,,,,,,,,,,,,,,36,2.4958,1,0,17,17,32,1,6,×,6,6 × 6,neutral,tie,1.5,1.5,36,,,,,,,,
,,,,,,,,,,,,,,,830,2022-01-13_16h26.58.341,multiplicationStroop,2021.2.3,Win32,60.13229104,,,,,,,,,,,,,,,,,,,,,,,,,,,,,,,,,18,1.5968,1,0,18,18,4,1,2,×,9,2 × 9,neutral,smallerFirst,1.5,1.5,18,,,,,,,,
,,,,,,,,,,,,,,,830,2022-01-13_16h26.58.341,multiplicationStroop,2021.2.3,Win32,60.13229104,,,,,,,,,,,,,,,,,,,,,,,,,,,,,,,,,8,1.4305,1,0,19,19,17,1,4,×,2,4 × 2,neutral,largerFirst,1.5,1.5,8,,,,,,,,
,,,,,,,,,,,,,,,830,2022-01-13_16h26.58.341,multiplicationStroop,2021.2.3,Win32,60.13229104,,,,,,,,,,,,,,,,,,,,,,,,,,,,,,,,,30,1.6806,1,0,20,20,5,1,5,×,6,5 × 6,neutral,smallerFirst,1.5,1.5,30,,,,,,,,
,,,,,,,,,,,,,,,830,2022-01-13_16h26.58.341,multiplicationStroop,2021.2.3,Win32,60.13229104,,,,,,,,,,,,,,,,,,,,,,,,,,,,,,,,,25,1.9312,1,0,21,21,31,1,5,×,5,5 × 5,neutral,tie,1.5,1.5,25,,,,,,,,
,,,,,,,,,,,,,,,830,2022-01-13_16h26.58.341,multiplicationStroop,2021.2.3,Win32,60.13229104,,,,,,,,,,,,,,,,,,,,,,,,,,,,,,,,,45,3.794,1,0,22,22,24,1,9,×,5,9 × 5,neutral,largerFirst,1.5,1.5,45,,,,,,,,
,,,,,,,,,,,,,,,830,2022-01-13_16h26.58.341,multiplicationStroop,2021.2.3,Win32,60.13229104,,,,,,,,,,,,,,,,,,,,,,,,,,,,,,,,,9,1.4008,1,0,23,23,29,1,3,×,3,3 × 3,neutral,tie,1.5,1.5,9,,,,,,,,
,,,,,,,,,,,,,,,830,2022-01-13_16h26.58.341,multiplicationStroop,2021.2.3,Win32,60.13229104,,,,,,,,,,,,,,,,,,,,,,,,,,,,,,,,,63,5.7258,1,0,24,24,26,1,9,×,7,9 × 7,neutral,largerFirst,1.5,1.5,63,,,,,,,,
,,,,,,,,,,,,,,,830,2022-01-13_16h26.58.341,multiplicationStroop,2021.2.3,Win32,60.13229104,,,,,,,,,,,,,,,,,,,,,,,,,,,,,,,,,15,1.4681,1,0,25,25,19,1,5,×,3,5 × 3,neutral,largerFirst,1.5,1.5,15,,,,,,,,
,,,,,,,,,,,,,,,830,2022-01-13_16h26.58.341,multiplicationStroop,2021.2.3,Win32,60.13229104,,,,,,,,,,,,,,,,,,,,,,,,,,,,,,,,,24,1.3799,1,0,26,26,16,1,6,×,4,6 × 4,neutral,largerFirst,1.5,1.5,24,,,,,,,,
,,,,,,,,,,,,,,,830,2022-01-13_16h26.58.341,multiplicationStroop,2021.2.3,Win32,60.13229104,,,,,,,,,,,,,,,,,,,,,,,,,,,,,,,,,10,1.4986,1,0,27,27,18,1,5,×,2,5 × 2,neutral,largerFirst,1.5,1.5,10,,,,,,,,
,,,,,,,,,,,,,,,830,2022-01-13_16h26.58.341,multiplicationStroop,2021.2.3,Win32,60.13229104,,,,,,,,,,,,,,,,,,,,,,,,,,,,,,,,,36,2.4623,1,0,28,28,13,1,4,×,9,4 × 9,neutral,smallerFirst,1.5,1.5,36,,,,,,,,
,,,,,,,,,,,,,,,830,2022-01-13_16h26.58.341,multiplicationStroop,2021.2.3,Win32,60.13229104,,,,,,,,,,,,,,,,,,,,,,,,,,,,,,,,,49,1.9841,1,0,29,29,33,1,7,×,7,7 × 7,neutral,tie,1.5,1.5,49,,,,,,,,
,,,,,,,,,,,,,,,830,2022-01-13_16h26.58.341,multiplicationStroop,2021.2.3,Win32,60.13229104,,,,,,,,,,,,,,,,,,,,,,,,,,,,,,,,,6,1.3634,1,0,30,30,12,1,2,×,3,2 × 3,neutral,smallerFirst,1.5,1.5,6,,,,,,,,
,,,,,,,,,,,,,,,830,2022-01-13_16h26.58.341,multiplicationStroop,2021.2.3,Win32,60.13229104,,,,,,,,,,,,,,,,,,,,,,,,,,,,,,,,,14,1.4467,1,0,31,31,2,1,2,×,7,2 × 7,neutral,smallerFirst,1.5,1.5,14,,,,,,,,
,,,,,,,,,,,,,,,830,2022-01-13_16h26.58.341,multiplicationStroop,2021.2.3,Win32,60.13229104,,,,,,,,,,,,,,,,,,,,,,,,,,,,,,,,,72,2.7481,1,0,32,32,25,1,9,×,8,9 × 8,neutral,largerFirst,1.5,1.5,72,,,,,,,,
,,,,,,,,,,,,,,,830,2022-01-13_16h26.58.341,multiplicationStroop,2021.2.3,Win32,60.13229104,,,,,,,,,,,,,,,,,,,,,,,,,,,,,,,,,42,2.4288,1,0,33,33,20,1,7,×,6,7 × 6,neutral,largerFirst,1.5,1.5,42,,,,,,,,
,,,,,,,,,,,,,,,830,2022-01-13_16h26.58.341,multiplicationStroop,2021.2.3,Win32,60.13229104,,,,,,,,,,,,,,,,,,,,,,,,,,,,,,,,,20,2.4328,1,0,34,34,6,1,4,×,5,4 × 5,neutral,smallerFirst,1.5,1.5,20,,,,,,,,
,,,,,,,,,,,,,,,830,2022-01-13_16h26.58.341,multiplicationStroop,2021.2.3,Win32,60.13229104,,,,,,,,,,,,,,,,,,,,,,,,,,,,,,,,,21,1.5971,1,0,35,35,22,1,7,×,3,7 × 3,neutral,largerFirst,1.5,1.5,21,,,,,,,,
,,,,,,,,,,,,,,,830,2022-01-13_16h26.58.341,multiplicationStroop,2021.2.3,Win32,60.13229104,,,,,,,,,,,,,,,,,,,,,,,,,,,,,,,,,,,,,,,,,,,,,,,,,,0,5,5,0,1,stimulusFile/mult_blk1.xlsx,,
,,,,,,,,,,,,,,,830,2022-01-13_16h26.58.341,multiplicationStroop,2021.2.3,Win32,60.13229104,,,,,,,,,,,,,,,,,,,,,,,,,,,,,,,,,,,,,,,,,,,,,,,,,,,,,,,,space,4.922