welcomeKey_resp.keys,welcomeKey_resp.rt,X Scale,Y Scale,rt_resp_4.keys,rt_resp_4.corr,rt_resp_4.rt,speedtest_2.thisRepN,speedtest_2.thisTrialN,speedtest_2.thisN,speedtest_2.thisIndex,speedtest_2.ran,numberSc,posX,positionLayout,participant,date,expName,psychopyVersion,OS,frameRate,ct_instrresp.keys,ct_instrresp.rt,key_resp_2.keys,key_resp_2.rt,ct_keyResp.keys,ct_keyResp.corr,ct_keyResp.rt,trials.thisRepN,trials.thisTrialN,trials.thisN,trials.thisIndex,trials.ran,leftNo,rightNo,displayProblem,numDistance,leftNo_size,rightNo_size,Dims,keyAnswer,TS_Loop.thisRepN,TS_Loop.thisTrialN,TS_Loop.thisN,TS_Loop.thisIndex,TS_Loop.ran,Condition,ActionInst,instrImage,mltptaskInst_resp.keys,mltptaskInst_resp.rt,continue_resp_2.keys,continue_resp_2.rt,multp_Answer,multi_RT,multiplyCorr,LoopingMultiply.thisRepN,LoopingMultiply.thisTrialN,LoopingMultiply.thisN,LoopingMultiply.thisIndex,LoopingMultiply.ran,factor1,multiplySign,factor2,multliplyProblem,physicalSize,orderOperand,sizeF1,sizeF2,mult_answer,trials_stroop.thisRepN,trials_stroop.thisTrialN,trials_stroop.thisN,trials_stroop.thisIndex,trials_stroop.ran,multiplicationFile,esckey_resp_2.keys,esckey_resp_2.rt
y,10.9599,52.2,51.7,right,1,0.6289,0,0,0,14,1,8,200,right,831,2022-01-12_18h41.14.712,multiplicationStroop,2021.2.3,Win32,49.94506043,,,,,,,,,,,,,,,,,,,,,,,,,,,,,,,,,,,,,,,,,,,,,,,,,,,,,,,,,
,,,,right,1,0.4557,0,1,1,8,1,1,200,right,831,2022-01-12_18h41.14.712,multiplicationStroop,2021.2.3,Win32,49.94506043,,,,,,,,,,,,,,,,,,,,,,,,,,,,,,,,,,,,,,,,,,,,,,,,,,,,,,,,,
,,,,left,1,0.4074,0,2,2,0,1,1,-200,left,831,2022-01-12_18h41.14.712,multiplicationStroop,2021.2.3,Win32,49.94506043,,,,,,,,,,,,,,,,,,,,,,,,,,,,,,,,,,,,,,,,,,,,,,,,,,,,,,,,,
,,,,right,1,0.3761,0,3,3,13,1,7,200,right,831,2022-01-12_18h41.14.712,multiplicationStroop,2021.2.3,Win32,49.94506043,,,,,,,,,,,,,,,,,,,,,,,,,,,,,,,,,,,,,,,,,,,,,,,,,,,,,,,,,
,,,,left,1,0.3317,0,4,4,6,1,8,-200,left,831,2022-01-12_18h41.14.712,multiplicationStroop,2021.2.3,Win32,49.94506043,,,,,,,,,,,,,,,,,,,,,,,,,,,,,,,,,,,,,,,,,,,,,,,,,,,,,,,,,
,,,,right,1,0.2893,0,5,5,10,1,3,200,right,831,2022-01-12_18h41.14.712,multiplicationStroop,2021.2.3,Win32,49.94506043,,,,,,,,,,,,,,,,,,,,,,,,,,,,,,,,,,,,,,,,,,,,,,,,,,,,,,,,,
,,,,left,1,0.3082,0,6,6,7,1,9,-200,left,831,2022-01-12_18h41.14.712,multiplicationStroop,2021.2.3,Win32,49.94506043,,,,,,,,,,,,,,,,,,,,,,,,,,,,,,,,,,,,,,,,,,,,,,,,,,,,,,,,,
,,,,left,1,0.4179,0,7,7,2,1,3,-200,left,831,2022-01-12_18h41.14.712,multiplicationStroop,2021.2.3,Win32,49.94506043,,,,,,,,,,,,,,,,,,,,,,,,,,,,,,,,,,,,,,,,,,,,,,,,,,,,,,,,,
,,,,right,1,0.3085,0,8,8,11,1,4,200,right,831,2022-01-12_18h41.14.712,multiplicationStroop,2021.2.3,Win32,49.94506043,,,,,,,,,,,,,,,,,,,,,,,,,,,,,,,,,,,,,,,,,,,,,,,,,,,,,,,,,
,,,,left,1,0.3094,0,9,9,3,1,4,-200,left,831,2022-01-12_18h41.14.712,multiplicationStroop,2021.2.3,Win32,49.94506043,,,,,,,,,,,,,,,,,,,,,,,,,,,,,,,,,,,,,,,,,,,,,,,,,,,,,,,,,
,,,,right,1,0.2796,0,10,10,15,1,9,200,right,831,2022-01-12_18h41.14.712,multiplicationStroop,2021.2.3,Win32,49.94506043,,,,,,,,,,,,,,,,,,,,,,,,,,,,,,,,,,,,,,,,,,,,,,,,,,,,,,,,,
,,,,left,1,0.2584,0,11,11,5,1,7,-200,left,831,2022-01-12_18h41.14.712,multiplicationStroop,2021.2.3,Win32,49.94506043,,,,,,,,,,,,,,,,,,,,,,,,,,,,,,,,,,,,,,,,,,,,,,,,,,,,,,,,,
,,,,right,1,0.3092,0,12,12,9,1,2,200,right,831,2022-01-12_18h41.14.712,multiplicationStroop,2021.2.3,Win32,49.94506043,,,,,,,,,,,,,,,,,,,,,,,,,,,,,,,,,,,,,,,,,,,,,,,,,,,,,,,,,
,,,,left,1,0.2993,0,13,13,1,1,2,-200,left,831,2022-01-12_18h41.14.712,multiplicationStroop,2021.2.3,Win32,49.94506043,,,,,,,,,,,,,,,,,,,,,,,,,,,,,,,,,,,,,,,,,,,,,,,,,,,,,,,,,
,,,,right,0,0.0639,0,14,14,4,1,6,-200,left,831,2022-01-12_18h41.14.712,multiplicationStroop,2021.2.3,Win32,49.94506043,,,,,,,,,,,,,,,,,,,,,,,,,,,,,,,,,,,,,,,,,,,,,,,,,,,,,,,,,
,,,,right,1,0.607,0,15,15,12,1,6,200,right,831,2022-01-12_18h41.14.712,multiplicationStroop,2021.2.3,Win32,49.94506043,,,,,,,,,,,,,,,,,,,,,,,,,,,,,,,,,,,,,,,,,,,,,,,,,,,,,,,,,
,,,,right,1,0.4881,1,0,16,10,1,3,200,right,831,2022-01-12_18h41.14.712,multiplicationStroop,2021.2.3,Win32,49.94506043,,,,,,,,,,,,,,,,,,,,,,,,,,,,,,,,,,,,,,,,,,,,,,,,,,,,,,,,,
,,,,right,1,0.2899,1,1,17,13,1,7,200,right,831,2022-01-12_18h41.14.712,multiplicationStroop,2021.2.3,Win32,49.94506043,,,,,,,,,,,,,,,,,,,,,,,,,,,,,,,,,,,,,,,,,,,,,,,,,,,,,,,,,
,,,,left,1,0.339,1,2,18,7,1,9,-200,left,831,2022-01-12_18h41.14.712,multiplicationStroop,2021.2.3,Win32,49.94506043,,,,,,,,,,,,,,,,,,,,,,,,,,,,,,,,,,,,,,,,,,,,,,,,,,,,,,,,,
,,,,left,1,0.3436,1,3,19,2,1,3,-200,left,831,2022-01-12_18h41.14.712,multiplicationStroop,2021.2.3,Win32,49.94506043,,,,,,,,,,,,,,,,,,,,,,,,,,,,,,,,,,,,,,,,,,,,,,,,,,,,,,,,,
,,,,right,1,0.3626,1,4,20,15,1,9,200,right,831,2022-01-12_18h41.14.712,multiplicationStroop,2021.2.3,Win32,49.94506043,,,,,,,,,,,,,,,,,,,,,,,,,,,,,,,,,,,,,,,,,,,,,,,,,,,,,,,,,
,,,,left,1,0.3096,1,5,21,6,1,8,-200,left,831,2022-01-12_18h41.14.712,multiplicationStroop,2021.2.3,Win32,49.94506043,,,,,,,,,,,,,,,,,,,,,,,,,,,,,,,,,,,,,,,,,,,,,,,,,,,,,,,,,
,,,,right,1,0.6227,1,6,22,14,1,8,200,right,831,2022-01-12_18h41.14.712,multiplicationStroop,2021.2.3,Win32,49.94506043,,,,,,,,,,,,,,,,,,,,,,,,,,,,,,,,,,,,,,,,,,,,,,,,,,,,,,,,,
,,,,right,1,0.4103,1,7,23,12,1,6,200,right,831,2022-01-12_18h41.14.712,multiplicationStroop,2021.2.3,Win32,49.94506043,,,,,,,,,,,,,,,,,,,,,,,,,,,,,,,,,,,,,,,,,,,,,,,,,,,,,,,,,
,,,,left,1,0.3649,1,8,24,1,1,2,-200,left,831,2022-01-12_18h41.14.712,multiplicationStroop,2021.2.3,Win32,49.94506043,,,,,,,,,,,,,,,,,,,,,,,,,,,,,,,,,,,,,,,,,,,,,,,,,,,,,,,,,
,,,,left,1,0.3657,1,9,25,3,1,4,-200,left,831,2022-01-12_18h41.14.712,multiplicationStroop,2021.2.3,Win32,49.94506043,,,,,,,,,,,,,,,,,,,,,,,,,,,,,,,,,,,,,,,,,,,,,,,,,,,,,,,,,
,,,,right,1,0.3376,1,10,26,8,1,1,200,right,831,2022-01-12_18h41.14.712,multiplicationStroop,2021.2.3,Win32,49.94506043,,,,,,,,,,,,,,,,,,,,,,,,,,,,,,,,,,,,,,,,,,,,,,,,,,,,,,,,,
,,,,right,1,0.4425,1,11,27,9,1,2,200,right,831,2022-01-12_18h41.14.712,multiplicationStroop,2021.2.3,Win32,49.94506043,,,,,,,,,,,,,,,,,,,,,,,,,,,,,,,,,,,,,,,,,,,,,,,,,,,,,,,,,
,,,,right,1,0.3333,1,12,28,11,1,4,200,right,831,2022-01-12_18h41.14.712,multiplicationStroop,2021.2.3,Win32,49.94506043,,,,,,,,,,,,,,,,,,,,,,,,,,,,,,,,,,,,,,,,,,,,,,,,,,,,,,,,,
,,,,left,1,0.3104,1,13,29,0,1,1,-200,left,831,2022-01-12_18h41.14.712,multiplicationStroop,2021.2.3,Win32,49.94506043,,,,,,,,,,,,,,,,,,,,,,,,,,,,,,,,,,,,,,,,,,,,,,,,,,,,,,,,,
,,,,left,1,0.317,1,14,30,5,1,7,-200,left,831,2022-01-12_18h41.14.712,multiplicationStroop,2021.2.3,Win32,49.94506043,,,,,,,,,,,,,,,,,,,,,,,,,,,,,,,,,,,,,,,,,,,,,,,,,,,,,,,,,
,,,,left,1,0.2774,1,15,31,4,1,6,-200,left,831,2022-01-12_18h41.14.712,multiplicationStroop,2021.2.3,Win32,49.94506043,,,,,,,,,,,,,,,,,,,,,,,,,,,,,,,,,,,,,,,,,,,,,,,,,,,,,,,,,
,,,,right,1,0.3252,2,0,32,12,1,6,200,right,831,2022-01-12_18h41.14.712,multiplicationStroop,2021.2.3,Win32,49.94506043,,,,,,,,,,,,,,,,,,,,,,,,,,,,,,,,,,,,,,,,,,,,,,,,,,,,,,,,,
,,,,left,1,0.3373,2,1,33,3,1,4,-200,left,831,2022-01-12_18h41.14.712,multiplicationStroop,2021.2.3,Win32,49.94506043,,,,,,,,,,,,,,,,,,,,,,,,,,,,,,,,,,,,,,,,,,,,,,,,,,,,,,,,,
,,,,right,0,0.0772,2,2,34,1,1,2,-200,left,831,2022-01-12_18h41.14.712,multiplicationStroop,2021.2.3,Win32,49.94506043,,,,,,,,,,,,,,,,,,,,,,,,,,,,,,,,,,,,,,,,,,,,,,,,,,,,,,,,,
,,,,right,1,0.5883,2,3,35,9,1,2,200,right,831,2022-01-12_18h41.14.712,multiplicationStroop,2021.2.3,Win32,49.94506043,,,,,,,,,,,,,,,,,,,,,,,,,,,,,,,,,,,,,,,,,,,,,,,,,,,,,,,,,
,,,,left,1,0.4982,2,4,36,7,1,9,-200,left,831,2022-01-12_18h41.14.712,multiplicationStroop,2021.2.3,Win32,49.94506043,,,,,,,,,,,,,,,,,,,,,,,,,,,,,,,,,,,,,,,,,,,,,,,,,,,,,,,,,
,,,,left,1,0.4603,2,5,37,0,1,1,-200,left,831,2022-01-12_18h41.14.712,multiplicationStroop,2021.2.3,Win32,49.94506043,,,,,,,,,,,,,,,,,,,,,,,,,,,,,,,,,,,,,,,,,,,,,,,,,,,,,,,,,
,,,,left,1,0.3225,2,6,38,6,1,8,-200,left,831,2022-01-12_18h41.14.712,multiplicationStroop,2021.2.3,Win32,49.94506043,,,,,,,,,,,,,,,,,,,,,,,,,,,,,,,,,,,,,,,,,,,,,,,,,,,,,,,,,
,,,,right,1,0.4098,2,7,39,11,1,4,200,right,831,2022-01-12_18h41.14.712,multiplicationStroop,2021.2.3,Win32,49.94506043,,,,,,,,,,,,,,,,,,,,,,,,,,,,,,,,,,,,,,,,,,,,,,,,,,,,,,,,,
,,,,right,1,0.3469,2,8,40,14,1,8,200,right,831,2022-01-12_18h41.14.712,multiplicationStroop,2021.2.3,Win32,49.94506043,,,,,,,,,,,,,,,,,,,,,,,,,,,,,,,,,,,,,,,,,,,,,,,,,,,,,,,,,
,,,,left,1,0.3458,2,9,41,5,1,7,-200,left,831,2022-01-12_18h41.14.712,multiplicationStroop,2021.2.3,Win32,49.94506043,,,,,,,,,,,,,,,,,,,,,,,,,,,,,,,,,,,,,,,,,,,,,,,,,,,,,,,,,
,,,,right,1,0.3804,2,10,42,15,1,9,200,right,831,2022-01-12_18h41.14.712,multiplicationStroop,2021.2.3,Win32,49.94506043,,,,,,,,,,,,,,,,,,,,,,,,,,,,,,,,,,,,,,,,,,,,,,,,,,,,,,,,,
,,,,left,0,0.219,2,11,43,10,1,3,200,right,831,2022-01-12_18h41.14.712,multiplicationStroop,2021.2.3,Win32,49.94506043,,,,,,,,,,,,,,,,,,,,,,,,,,,,,,,,,,,,,,,,,,,,,,,,,,,,,,,,,
,,,,left,1,0.5997,2,12,44,4,1,6,-200,left,831,2022-01-12_18h41.14.712,multiplicationStroop,2021.2.3,Win32,49.94506043,,,,,,,,,,,,,,,,,,,,,,,,,,,,,,,,,,,,,,,,,,,,,,,,,,,,,,,,,
,,,,right,1,0.399,2,13,45,8,1,1,200,right,831,2022-01-12_18h41.14.712,multiplicationStroop,2021.2.3,Win32,49.94506043,,,,,,,,,,,,,,,,,,,,,,,,,,,,,,,,,,,,,,,,,,,,,,,,,,,,,,,,,
,,,,left,1,0.3179,2,14,46,2,1,3,-200,left,831,2022-01-12_18h41.14.712,multiplicationStroop,2021.2.3,Win32,49.94506043,,,,,,,,,,,,,,,,,,,,,,,,,,,,,,,,,,,,,,,,,,,,,,,,,,,,,,,,,
,,,,right,1,0.3581,2,15,47,13,1,7,200,right,831,2022-01-12_18h41.14.712,multiplicationStroop,2021.2.3,Win32,49.94506043,,,,,,,,,,,,,,,,,,,,,,,,,,,,,,,,,,,,,,,,,,,,,,,,,,,,,,,,,
,,,,left,1,0.3173,3,0,48,6,1,8,-200,left,831,2022-01-12_18h41.14.712,multiplicationStroop,2021.2.3,Win32,49.94506043,,,,,,,,,,,,,,,,,,,,,,,,,,,,,,,,,,,,,,,,,,,,,,,,,,,,,,,,,
,,,,left,1,0.3417,3,1,49,0,1,1,-200,left,831,2022-01-12_18h41.14.712,multiplicationStroop,2021.2.3,Win32,49.94506043,,,,,,,,,,,,,,,,,,,,,,,,,,,,,,,,,,,,,,,,,,,,,,,,,,,,,,,,,
,,,,right,1,0.3521,3,2,50,13,1,7,200,right,831,2022-01-12_18h41.14.712,multiplicationStroop,2021.2.3,Win32,49.94506043,,,,,,,,,,,,,,,,,,,,,,,,,,,,,,,,,,,,,,,,,,,,,,,,,,,,,,,,,
,,,,left,1,0.3495,3,3,51,7,1,9,-200,left,831,2022-01-12_18h41.14.712,multiplicationStroop,2021.2.3,Win32,49.94506043,,,,,,,,,,,,,,,,,,,,,,,,,,,,,,,,,,,,,,,,,,,,,,,,,,,,,,,,,
,,,,right,1,0.3376,3,4,52,14,1,8,200,right,831,2022-01-12_18h41.14.712,multiplicationStroop,2021.2.3,Win32,49.94506043,,,,,,,,,,,,,,,,,,,,,,,,,,,,,,,,,,,,,,,,,,,,,,,,,,,,,,,,,
,,,,left,0,0.1998,3,5,53,10,1,3,200,right,831,2022-01-12_18h41.14.712,multiplicationStroop,2021.2.3,Win32,49.94506043,,,,,,,,,,,,,,,,,,,,,,,,,,,,,,,,,,,,,,,,,,,,,,,,,,,,,,,,,
,,,,right,0,0.2007,3,6,54,2,1,3,-200,left,831,2022-01-12_18h41.14.712,multiplicationStroop,2021.2.3,Win32,49.94506043,,,,,,,,,,,,,,,,,,,,,,,,,,,,,,,,,,,,,,,,,,,,,,,,,,,,,,,,,
,,,,right,1,0.6477,3,7,55,15,1,9,200,right,831,2022-01-12_18h41.14.712,multiplicationStroop,2021.2.3,Win32,49.94506043,,,,,,,,,,,,,,,,,,,,,,,,,,,,,,,,,,,,,,,,,,,,,,,,,,,,,,,,,
,,,,right,1,0.3179,3,8,56,8,1,1,200,right,831,2022-01-12_18h41.14.712,multiplicationStroop,2021.2.3,Win32,49.94506043,,,,,,,,,,,,,,,,,,,,,,,,,,,,,,,,,,,,,,,,,,,,,,,,,,,,,,,,,
,,,,left,1,0.3595,3,9,57,1,1,2,-200,left,831,2022-01-12_18h41.14.712,multiplicationStroop,2021.2.3,Win32,49.94506043,,,,,,,,,,,,,,,,,,,,,,,,,,,,,,,,,,,,,,,,,,,,,,,,,,,,,,,,,
,,,,left,1,0.388,3,10,58,3,1,4,-200,left,831,2022-01-12_18h41.14.712,multiplicationStroop,2021.2.3,Win32,49.94506043,,,,,,,,,,,,,,,,,,,,,,,,,,,,,,,,,,,,,,,,,,,,,,,,,,,,,,,,,
,,,,right,1,0.3921,3,11,59,12,1,6,200,right,831,2022-01-12_18h41.14.712,multiplicationStroop,2021.2.3,Win32,49.94506043,,,,,,,,,,,,,,,,,,,,,,,,,,,,,,,,,,,,,,,,,,,,,,,,,,,,,,,,,
,,,,right,1,0.3793,3,12,60,9,1,2,200,right,831,2022-01-12_18h41.14.712,multiplicationStroop,2021.2.3,Win32,49.94506043,,,,,,,,,,,,,,,,,,,,,,,,,,,,,,,,,,,,,,,,,,,,,,,,,,,,,,,,,
,,,,left,1,0.3842,3,13,61,4,1,6,-200,left,831,2022-01-12_18h41.14.712,multiplicationStroop,2021.2.3,Win32,49.94506043,,,,,,,,,,,,,,,,,,,,,,,,,,,,,,,,,,,,,,,,,,,,,,,,,,,,,,,,,
,,,,right,1,0.3409,3,14,62,11,1,4,200,right,831,2022-01-12_18h41.14.712,multiplicationStroop,2021.2.3,Win32,49.94506043,,,,,,,,,,,,,,,,,,,,,,,,,,,,,,,,,,,,,,,,,,,,,,,,,,,,,,,,,
,,,,left,1,0.3323,3,15,63,5,1,7,-200,left,831,2022-01-12_18h41.14.712,multiplicationStroop,2021.2.3,Win32,49.94506043,,,,,,,,,,,,,,,,,,,,,,,,,,,,,,,,,,,,,,,,,,,,,,,,,,,,,,,,,
,,,,,,,,,,,,,,,831,2022-01-12_18h41.14.712,multiplicationStroop,2021.2.3,Win32,49.94506043,space,8.1321,space,14.5068,right,1,0.761,0,0,0,63,1,9,9,9 | 9,0,1.4111,1.9756,neutral,right,,,,,,stimulusFile/physical.xlsx,,,,,,,,,,,,,,,,,,,,,,,,,,,,,,,
,,,,,,,,,,,,,,,831,2022-01-12_18h41.14.712,multiplicationStroop,2021.2.3,Win32,49.94506043,,,,,right,1,0.6007,0,1,1,37,1,4,2,4 | 2,2,1.4111,1.9756,incongruent,right,,,,,,stimulusFile/physical.xlsx,,,,,,,,,,,,,,,,,,,,,,,,,,,,,,,
,,,,,,,,,,,,,,,831,2022-01-12_18h41.14.712,multiplicationStroop,2021.2.3,Win32,49.94506043,,,,,right,1,0.4434,0,2,2,59,1,7,7,7 | 7,0,1.4111,1.9756,neutral,right,,,,,,stimulusFile/physical.xlsx,,,,,,,,,,,,,,,,,,,,,,,,,,,,,,,
,,,,,,,,,,,,,,,831,2022-01-12_18h41.14.712,multiplicationStroop,2021.2.3,Win32,49.94506043,,,,,right,1,0.3569,0,3,3,57,1,2,2,2 | 2,0,1.4111,1.9756,neutral,right,,,,,,stimulusFile/physical.xlsx,,,,,,,,,,,,,,,,,,,,,,,,,,,,,,,
,,,,,,,,,,,,,,,831,2022-01-12_18h41.14.712,multiplicationStroop,2021.2.3,Win32,49.94506043,,,,,right,1,0.3169,0,4,4,36,1,3,1,3 | 1,2,1.4111,1.9756,incongruent,right,,,,,,stimulusFile/physical.xlsx,,,,,,,,,,,,,,,,,,,,,,,,,,,,,,,
,,,,,,,,,,,,,,,831,2022-01-12_18h41.14.712,multiplicationStroop,2021.2.3,Win32,49.94506043,,,,,left,1,0.6005,0,5,5,23,1,9,4,9 | 4,5,1.9756,1.4111,congruent,left,,,,,,stimulusFile/physical.xlsx,,,,,,,,,,,,,,,,,,,,,,,,,,,,,,,
,,,,,,,,,,,,,,,831,2022-01-12_18h41.14.712,multiplicationStroop,2021.2.3,Win32,49.94506043,,,,,right,1,0.4517,0,6,6,31,1,9,8,9 | 8,1,1.4111,1.9756,incongruent,right,,,,,,stimulusFile/physical.xlsx,,,,,,,,,,,,,,,,,,,,,,,,,,,,,,,
,,,,,,,,,,,,,,,831,2022-01-12_18h41.14.712,multiplicationStroop,2021.2.3,Win32,49.94506043,,,,,right,1,0.5717,0,7,7,1,1,3,4,3 | 4,1,1.4111,1.9756,congruent,right,,,,,,stimulusFile/physical.xlsx,,,,,,,,,,,,,,,,,,,,,,,,,,,,,,,
,,,,,,,,,,,,,,,831,2022-01-12_18h41.14.712,multiplicationStroop,2021.2.3,Win32,49.94506043,,,,,left,1,0.5982,0,8,8,53,1,4,4,4 | 4,0,1.9756,1.4111,neutral,left,,,,,,stimulusFile/physical.xlsx,,,,,,,,,,,,,,,,,,,,,,,,,,,,,,,
,,,,,,,,,,,,,,,831,2022-01-12_18h41.14.712,multiplicationStroop,2021.2.3,Win32,49.94506043,,,,,left,1,0.5407,0,9,9,12,1,3,1,3 | 1,2,1.9756,1.4111,congruent,left,,,,,,stimulusFile/physical.xlsx,,,,,,,,,,,,,,,,,,,,,,,,,,,,,,,
,,,,,,,,,,,,,,,831,2022-01-12_18h41.14.712,multiplicationStroop,2021.2.3,Win32,49.94506043,,,,,left,1,0.5536,0,10,10,51,1,8,8,8 | 8,0,1.9756,1.4111,neutral,left,,,,,,stimulusFile/physical.xlsx,,,,,,,,,,,,,,,,,,,,,,,,,,,,,,,
,,,,,,,,,,,,,,,831,2022-01-12_18h41.14.712,multiplicationStroop,2021.2.3,Win32,49.94506043,,,,,left,1,0.4472,0,11,11,22,1,8,3,8 | 3,5,1.9756,1.4111,congruent,left,,,,,,stimulusFile/physical.xlsx,,,,,,,,,,,,,,,,,,,,,,,,,,,,,,,
,,,,,,,,,,,,,,,831,2022-01-12_18h41.14.712,multiplicationStroop,2021.2.3,Win32,49.94506043,,,,,left,1,0.6946,0,12,12,6,1,7,6,7 | 6,1,1.9756,1.4111,congruent,left,,,,,,stimulusFile/physical.xlsx,,,,,,,,,,,,,,,,,,,,,,,,,,,,,,,
,,,,,,,,,,,,,,,831,2022-01-12_18h41.14.712,multiplicationStroop,2021.2.3,Win32,49.94506043,,,,,right,1,0.455,0,13,13,67,1,4,4,4 | 4,0,1.4111,1.9756,neutral,right,,,,,,stimulusFile/physical.xlsx,,,,,,,,,,,,,,,,,,,,,,,,,,,,,,,
,,,,,,,,,,,,,,,831,2022-01-12_18h41.14.712,multiplicationStroop,2021.2.3,Win32,49.94506043,,,,,right,1,0.4362,0,14,14,10,1,6,8,6 | 8,2,1.4111,1.9756,congruent,right,,,,,,stimulusFile/physical.xlsx,,,,,,,,,,,,,,,,,,,,,,,,,,,,,,,
,,,,,,,,,,,,,,,831,2022-01-12_18h41.14.712,multiplicationStroop,2021.2.3,Win32,49.94506043,,,,,right,1,0.4376,0,15,15,2,1,6,7,6 | 7,1,1.4111,1.9756,congruent,right,,,,,,stimulusFile/physical.xlsx,,,,,,,,,,,,,,,,,,,,,,,,,,,,,,,
,,,,,,,,,,,,,,,831,2022-01-12_18h41.14.712,multiplicationStroop,2021.2.3,Win32,49.94506043,,,,,right,1,0.4251,0,16,16,39,1,9,7,9 | 7,2,1.4111,1.9756,incongruent,right,,,,,,stimulusFile/physical.xlsx,,,,,,,,,,,,,,,,,,,,,,,,,,,,,,,
,,,,,,,,,,,,,,,831,2022-01-12_18h41.14.712,multiplicationStroop,2021.2.3,Win32,49.94506043,,,,,left,1,0.4923,0,17,17,68,1,6,6,6 | 6,0,1.9756,1.4111,neutral,left,,,,,,stimulusFile/physical.xlsx,,,,,,,,,,,,,,,,,,,,,,,,,,,,,,,
,,,,,,,,,,,,,,,831,2022-01-12_18h41.14.712,multiplicationStroop,2021.2.3,Win32,49.94506043,,,,,right,1,0.4391,0,18,18,62,1,8,8,8 | 8,0,1.4111,1.9756,neutral,right,,,,,,stimulusFile/physical.xlsx,,,,,,,,,,,,,,,,,,,,,,,,,,,,,,,
,,,,,,,,,,,,,,,831,2022-01-12_18h41.14.712,multiplicationStroop,2021.2.3,Win32,49.94506043,,,,,left,1,0.9125,0,19,19,25,1,3,4,3 | 4,1,1.9756,1.4111,incongruent,left,,,,,,stimulusFile/physical.xlsx,,,,,,,,,,,,,,,,,,,,,,,,,,,,,,,
,,,,,,,,,,,,,,,831,2022-01-12_18h41.14.712,multiplicationStroop,2021.2.3,Win32,49.94506043,,,,,left,1,0.5047,0,20,20,35,1,7,9,7 | 9,2,1.9756,1.4111,incongruent,left,,,,,,stimulusFile/physical.xlsx,,,,,,,,,,,,,,,,,,,,,,,,,,,,,,,
,,,,,,,,,,,,,,,831,2022-01-12_18h41.14.712,multiplicationStroop,2021.2.3,Win32,49.94506043,,,,,right,1,0.4593,0,21,21,47,1,9,4,9 | 4,5,1.4111,1.9756,incongruent,right,,,,,,stimulusFile/physical.xlsx,,,,,,,,,,,,,,,,,,,,,,,,,,,,,,,
,,,,,,,,,,,,,,,831,2022-01-12_18h41.14.712,multiplicationStroop,2021.2.3,Win32,49.94506043,,,,,left,0,0.5162,0,22,22,66,1,3,3,3 | 3,0,1.9756,1.4111,neutral,right,,,,,,stimulusFile/physical.xlsx,,,,,,,,,,,,,,,,,,,,,,,,,,,,,,,
,,,,,,,,,,,,,,,831,2022-01-12_18h41.14.712,multiplicationStroop,2021.2.3,Win32,49.94506043,,,,,right,0,0.4297,0,23,23,69,1,7,7,7 | 7,0,1.4111,1.9756,neutral,left,,,,,,stimulusFile/physical.xlsx,,,,,,,,,,,,,,,,,,,,,,,,,,,,,,,
,,,,,,,,,,,,,,,831,2022-01-12_18h41.14.712,multiplicationStroop,2021.2.3,Win32,49.94506043,,,,,left,1,0.4279,0,24,24,7,1,9,8,9 | 8,1,1.9756,1.4111,congruent,left,,,,,,stimulusFile/physical.xlsx,,,,,,,,,,,,,,,,,,,,,,,,,,,,,,,
,,,,,,,,,,,,,,,831,2022-01-12_18h41.14.712,multiplicationStroop,2021.2.3,Win32,49.94506043,,,,,right,1,0.4558,0,25,25,46,1,8,3,8 | 3,5,1.4111,1.9756,incongruent,right,,,,,,stimulusFile/physical.xlsx,,,,,,,,,,,,,,,,,,,,,,,,,,,,,,,
,,,,,,,,,,,,,,,831,2022-01-12_18h41.14.712,multiplicationStroop,2021.2.3,Win32,49.94506043,,,,,left,1,0.3569,0,26,26,5,1,4,3,4 | 3,1,1.9756,1.4111,congruent,left,,,,,,stimulusFile/physical.xlsx,,,,,,,,,,,,,,,,,,,,,,,,,,,,,,,
,,,,,,,,,,,,,,,831,2022-01-12_18h41.14.712,multiplicationStroop,2021.2.3,Win32,49.94506043,,,,,left,1,0.4699,0,27,27,21,1,7,2,7 | 2,5,1.9756,1.4111,congruent,left,,,,,,stimulusFile/physical.xlsx,,,,,,,,,,,,,,,,,,,,,,,,,,,,,,,
,,,,,,,,,,,,,,,831,2022-01-12_18h41.14.712,multiplicationStroop,2021.2.3,Win32,49.94506043,,,,,left,1,0.4783,0,28,28,41,1,2,7,2 | 7,5,1.9756,1.4111,incongruent,left,,,,,,stimulusFile/physical.xlsx,,,,,,,,,,,,,,,,,,,,,,,,,,,,,,,
,,,,,,,,,,,,,,,831,2022-01-12_18h41.14.712,multiplicationStroop,2021.2.3,Win32,49.94506043,,,,,right,1,0.4847,0,29,29,56,1,1,1,1 | 1,0,1.4111,1.9756,neutral,right,,,,,,stimulusFile/physical.xlsx,,,,,,,,,,,,,,,,,,,,,,,,,,,,,,,
,,,,,,,,,,,,,,,831,2022-01-12_18h41.14.712,multiplicationStroop,2021.2.3,Win32,49.94506043,,,,,right,0,0.4375,0,30,30,71,1,9,9,9 | 9,0,1.4111,1.9756,neutral,left,,,,,,stimulusFile/physical.xlsx,,,,,,,,,,,,,,,,,,,,,,,,,,,,,,,
,,,,,,,,,,,,,,,831,2022-01-12_18h41.14.712,multiplicationStroop,2021.2.3,Win32,49.94506043,,,,,right,1,0.3988,0,31,31,29,1,4,3,4 | 3,1,1.4111,1.9756,incongruent,right,,,,,,stimulusFile/physical.xlsx,,,,,,,,,,,,,,,,,,,,,,,,,,,,,,,
,,,,,,,,,,,,,,,831,2022-01-12_18h41.14.712,multiplicationStroop,2021.2.3,Win32,49.94506043,,,,,right,1,0.4193,0,32,32,8,1,1,3,1 | 3,2,1.4111,1.9756,congruent,right,,,,,,stimulusFile/physical.xlsx,,,,,,,,,,,,,,,,,,,,,,,,,,,,,,,
,,,,,,,,,,,,,,,831,2022-01-12_18h41.14.712,multiplicationStroop,2021.2.3,Win32,49.94506043,,,,,right,1,0.444,0,33,33,60,1,3,3,3 | 3,0,1.4111,1.9756,neutral,right,,,,,,stimulusFile/physical.xlsx,,,,,,,,,,,,,,,,,,,,,,,,,,,,,,,
,,,,,,,,,,,,,,,831,2022-01-12_18h41.14.712,multiplicationStroop,2021.2.3,Win32,49.94506043,,,,,left,1,0.5259,0,34,34,26,1,6,7,6 | 7,1,1.9756,1.4111,incongruent,left,,,,,,stimulusFile/physical.xlsx,,,,,,,,,,,,,,,,,,,,,,,,,,,,,,,
,,,,,,,,,,,,,,,831,2022-01-12_18h41.14.712,multiplicationStroop,2021.2.3,Win32,49.94506043,,,,,right,1,0.4938,0,35,35,11,1,7,9,7 | 9,2,1.4111,1.9756,congruent,right,,,,,,stimulusFile/physical.xlsx,,,,,,,,,,,,,,,,,,,,,,,,,,,,,,,
,,,,,,,,,,,,,,,831,2022-01-12_18h41.14.712,multiplicationStroop,2021.2.3,Win32,49.94506043,,,,,left,1,0.4994,0,36,36,33,1,2,4,2 | 4,2,1.9756,1.4111,incongruent,left,,,,,,stimulusFile/physical.xlsx,,,,,,,,,,,,,,,,,,,,,,,,,,,,,,,
,,,,,,,,,,,,,,,831,2022-01-12_18h41.14.712,multiplicationStroop,2021.2.3,Win32,49.94506043,,,,,left,1,0.5936,0,37,37,50,1,6,6,6 | 6,0,1.9756,1.4111,neutral,left,,,,,,stimulusFile/physical.xlsx,,,,,,,,,,,,,,,,,,,,,,,,,,,,,,,
,,,,,,,,,,,,,,,831,2022-01-12_18h41.14.712,multiplicationStroop,2021.2.3,Win32,49.94506043,,,,,right,1,0.3929,0,38,38,18,1,3,8,3 | 8,5,1.4111,1.9756,congruent,right,,,,,,stimulusFile/physical.xlsx,,,,,,,,,,,,,,,,,,,,,,,,,,,,,,,
,,,,,,,,,,,,,,,831,2022-01-12_18h41.14.712,multiplicationStroop,2021.2.3,Win32,49.94506043,,,,,left,1,0.3141,0,39,39,15,1,9,7,9 | 7,2,1.9756,1.4111,congruent,left,,,,,,stimulusFile/physical.xlsx,,,,,,,,,,,,,,,,,,,,,,,,,,,,,,,
,,,,,,,,,,,,,,,831,2022-01-12_18h41.14.712,multiplicationStroop,2021.2.3,Win32,49.94506043,,,,,right,1,0.3338,0,40,40,17,1,2,7,2 | 7,5,1.4111,1.9756,congruent,right,,,,,,stimulusFile/physical.xlsx,,,,,,,,,,,,,,,,,,,,,,,,,,,,,,,
,,,,,,,,,,,,,,,831,2022-01-12_18h41.14.712,multiplicationStroop,2021.2.3,Win32,49.94506043,,,,,left,1,0.3214,0,41,41,34,1,6,8,6 | 8,2,1.9756,1.4111,incongruent,left,,,,,,stimulusFile/physical.xlsx,,,,,,,,,,,,,,,,,,,,,,,,,,,,,,,
,,,,,,,,,,,,,,,831,2022-01-12_18h41.14.712,multiplicationStroop,2021.2.3,Win32,49.94506043,,,,,left,1,0.6098,0,42,42,32,1,1,3,1 | 3,2,1.9756,1.4111,incongruent,left,,,,,,stimulusFile/physical.xlsx,,,,,,,,,,,,,,,,,,,,,,,,,,,,,,,
,,,,,,,,,,,,,,,831,2022-01-12_18h41.14.712,multiplicationStroop,2021.2.3,Win32,49.94506043,,,,,left,1,0.3942,0,43,43,13,1,4,2,4 | 2,2,1.9756,1.4111,congruent,left,,,,,,stimulusFile/physical.xlsx,,,,,,,,,,,,,,,,,,,,,,,,,,,,,,,
,,,,,,,,,,,,,,,831,2022-01-12_18h41.14.712,multiplicationStroop,2021.2.3,Win32,49.94506043,,,,,left,1,0.5091,0,44,44,24,1,1,2,1 | 2,1,1.9756,1.4111,incongruent,left,,,,,,stimulusFile/physical.xlsx,,,,,,,,,,,,,,,,,,,,,,,,,,,,,,,
,,,,,,,,,,,,,,,831,2022-01-12_18h41.14.712,multiplicationStroop,2021.2.3,Win32,49.94506043,,,,,right,1,0.4452,0,45,45,58,1,6,6,6 | 6,0,1.4111,1.9756,neutral,right,,,,,,stimulusFile/physical.xlsx,,,,,,,,,,,,,,,,,,,,,,,,,,,,,,,
,,,,,,,,,,,,,,,831,2022-01-12_18h41.14.712,multiplicationStroop,2021.2.3,Win32,49.94506043,,,,,left,1,0.4458,0,46,46,48,1,1,1,1 | 1,0,1.9756,1.4111,neutral,left,,,,,,stimulusFile/physical.xlsx,,,,,,,,,,,,,,,,,,,,,,,,,,,,,,,
,,,,,,,,,,,,,,,831,2022-01-12_18h41.14.712,multiplicationStroop,2021.2.3,Win32,49.94506043,,,,,left,0,0.4686,0,47,47,64,1,1,1,1 | 1,0,1.9756,1.4111,neutral,right,,,,,,stimulusFile/physical.xlsx,,,,,,,,,,,,,,,,,,,,,,,,,,,,,,,
,,,,,,,,,,,,,,,831,2022-01-12_18h41.14.712,multiplicationStroop,2021.2.3,Win32,49.94506043,,,,,left,1,0.3774,0,48,48,40,1,1,6,1 | 6,5,1.9756,1.4111,incongruent,left,,,,,,stimulusFile/physical.xlsx,,,,,,,,,,,,,,,,,,,,,,,,,,,,,,,
,,,,,,,,,,,,,,,831,2022-01-12_18h41.14.712,multiplicationStroop,2021.2.3,Win32,49.94506043,,,,,right,1,0.4789,0,49,49,0,1,1,2,1 | 2,1,1.4111,1.9756,congruent,right,,,,,,stimulusFile/physical.xlsx,,,,,,,,,,,,,,,,,,,,,,,,,,,,,,,
,,,,,,,,,,,,,,,831,2022-01-12_18h41.14.712,multiplicationStroop,2021.2.3,Win32,49.94506043,,,,,left,0,0.5538,0,50,50,19,1,4,9,4 | 9,5,1.4111,1.9756,congruent,right,,,,,,stimulusFile/physical.xlsx,,,,,,,,,,,,,,,,,,,,,,,,,,,,,,,
,,,,,,,,,,,,,,,831,2022-01-12_18h41.14.712,multiplicationStroop,2021.2.3,Win32,49.94506043,,,,,left,1,0.5198,0,51,51,49,1,3,3,3 | 3,0,1.9756,1.4111,neutral,left,,,,,,stimulusFile/physical.xlsx,,,,,,,,,,,,,,,,,,,,,,,,,,,,,,,
,,,,,,,,,,,,,,,831,2022-01-12_18h41.14.712,multiplicationStroop,2021.2.3,Win32,49.94506043,,,,,left,1,0.6492,0,52,52,70,1,8,8,8 | 8,0,1.9756,1.4111,neutral,left,,,,,,stimulusFile/physical.xlsx,,,,,,,,,,,,,,,,,,,,,,,,,,,,,,,
,,,,,,,,,,,,,,,831,2022-01-12_18h41.14.712,multiplicationStroop,2021.2.3,Win32,49.94506043,,,,,right,1,0.4623,0,53,53,45,1,7,2,7 | 2,5,1.4111,1.9756,incongruent,right,,,,,,stimulusFile/physical.xlsx,,,,,,,,,,,,,,,,,,,,,,,,,,,,,,,
,,,,,,,,,,,,,,,831,2022-01-12_18h41.14.712,multiplicationStroop,2021.2.3,Win32,49.94506043,,,,,left,1,0.5407,0,54,54,43,1,4,9,4 | 9,5,1.9756,1.4111,incongruent,left,,,,,,stimulusFile/physical.xlsx,,,,,,,,,,,,,,,,,,,,,,,,,,,,,,,
,,,,,,,,,,,,,,,831,2022-01-12_18h41.14.712,multiplicationStroop,2021.2.3,Win32,49.94506043,,,,,left,1,0.5023,0,55,55,55,1,9,9,9 | 9,0,1.9756,1.4111,neutral,left,,,,,,stimulusFile/physical.xlsx,,,,,,,,,,,,,,,,,,,,,,,,,,,,,,,
,,,,,,,,,,,,,,,831,2022-01-12_18h41.14.712,multiplicationStroop,2021.2.3,Win32,49.94506043,,,,,right,1,0.5162,0,56,56,44,1,6,1,6 | 1,5,1.4111,1.9756,incongruent,right,,,,,,stimulusFile/physical.xlsx,,,,,,,,,,,,,,,,,,,,,,,,,,,,,,,
,,,,,,,,,,,,,,,831,2022-01-12_18h41.14.712,multiplicationStroop,2021.2.3,Win32,49.94506043,,,,,left,1,0.4861,0,57,57,14,1,8,6,8 | 6,2,1.9756,1.4111,congruent,left,,,,,,stimulusFile/physical.xlsx,,,,,,,,,,,,,,,,,,,,,,,,,,,,,,,
,,,,,,,,,,,,,,,831,2022-01-12_18h41.14.712,multiplicationStroop,2021.2.3,Win32,49.94506043,,,,,left,1,0.4371,0,58,58,54,1,7,7,7 | 7,0,1.9756,1.4111,neutral,left,,,,,,stimulusFile/physical.xlsx,,,,,,,,,,,,,,,,,,,,,,,,,,,,,,,
,,,,,,,,,,,,,,,831,2022-01-12_18h41.14.712,multiplicationStroop,2021.2.3,Win32,49.94506043,,,,,right,1,0.4742,0,59,59,28,1,2,1,2 | 1,1,1.4111,1.9756,incongruent,right,,,,,,stimulusFile/physical.xlsx,,,,,,,,,,,,,,,,,,,,,,,,,,,,,,,
,,,,,,,,,,,,,,,831,2022-01-12_18h41.14.712,multiplicationStroop,2021.2.3,Win32,49.94506043,,,,,right,1,0.4504,0,60,60,65,1,2,2,2 | 2,0,1.4111,1.9756,neutral,right,,,,,,stimulusFile/physical.xlsx,,,,,,,,,,,,,,,,,,,,,,,,,,,,,,,
,,,,,,,,,,,,,,,831,2022-01-12_18h41.14.712,multiplicationStroop,2021.2.3,Win32,49.94506043,,,,,right,1,0.6348,0,61,61,30,1,7,6,7 | 6,1,1.4111,1.9756,incongruent,right,,,,,,stimulusFile/physical.xlsx,,,,,,,,,,,,,,,,,,,,,,,,,,,,,,,
,,,,,,,,,,,,,,,831,2022-01-12_18h41.14.712,multiplicationStroop,2021.2.3,Win32,49.94506043,,,,,left,1,0.4809,0,62,62,52,1,2,2,2 | 2,0,1.9756,1.4111,neutral,left,,,,,,stimulusFile/physical.xlsx,,,,,,,,,,,,,,,,,,,,,,,,,,,,,,,
,,,,,,,,,,,,,,,831,2022-01-12_18h41.14.712,multiplicationStroop,2021.2.3,Win32,49.94506043,,,,,left,1,0.5542,0,63,63,4,1,2,1,2 | 1,1,1.9756,1.4111,congruent,left,,,,,,stimulusFile/physical.xlsx,,,,,,,,,,,,,,,,,,,,,,,,,,,,,,,
,,,,,,,,,,,,,,,831,2022-01-12_18h41.14.712,multiplicationStroop,2021.2.3,Win32,49.94506043,,,,,right,1,0.479,0,64,64,61,1,4,4,4 | 4,0,1.4111,1.9756,neutral,right,,,,,,stimulusFile/physical.xlsx,,,,,,,,,,,,,,,,,,,,,,,,,,,,,,,
,,,,,,,,,,,,,,,831,2022-01-12_18h41.14.712,multiplicationStroop,2021.2.3,Win32,49.94506043,,,,,right,1,0.5175,0,65,65,9,1,2,4,2 | 4,2,1.4111,1.9756,congruent,right,,,,,,stimulusFile/physical.xlsx,,,,,,,,,,,,,,,,,,,,,,,,,,,,,,,
,,,,,,,,,,,,,,,831,2022-01-12_18h41.14.712,multiplicationStroop,2021.2.3,Win32,49.94506043,,,,,right,1,0.4691,0,66,66,38,1,8,6,8 | 6,2,1.4111,1.9756,incongruent,right,,,,,,stimulusFile/physical.xlsx,,,,,,,,,,,,,,,,,,,,,,,,,,,,,,,
,,,,,,,,,,,,,,,831,2022-01-12_18h41.14.712,multiplicationStroop,2021.2.3,Win32,49.94506043,,,,,right,1,0.4413,0,67,67,16,1,1,6,1 | 6,5,1.4111,1.9756,congruent,right,,,,,,stimulusFile/physical.xlsx,,,,,,,,,,,,,,,,,,,,,,,,,,,,,,,
,,,,,,,,,,,,,,,831,2022-01-12_18h41.14.712,multiplicationStroop,2021.2.3,Win32,49.94506043,,,,,left,1,0.4399,0,68,68,20,1,6,1,6 | 1,5,1.9756,1.4111,congruent,left,,,,,,stimulusFile/physical.xlsx,,,,,,,,,,,,,,,,,,,,,,,,,,,,,,,
,,,,,,,,,,,,,,,831,2022-01-12_18h41.14.712,multiplicationStroop,2021.2.3,Win32,49.94506043,,,,,left,1,0.4358,0,69,69,27,1,8,9,8 | 9,1,1.9756,1.4111,incongruent,left,,,,,,stimulusFile/physical.xlsx,,,,,,,,,,,,,,,,,,,,,,,,,,,,,,,
,,,,,,,,,,,,,,,831,2022-01-12_18h41.14.712,multiplicationStroop,2021.2.3,Win32,49.94506043,,,,,right,1,0.5344,0,70,70,3,1,8,9,8 | 9,1,1.4111,1.9756,congruent,right,,,,,,stimulusFile/physical.xlsx,,,,,,,,,,,,,,,,,,,,,,,,,,,,,,,
,,,,,,,,,,,,,,,831,2022-01-12_18h41.14.712,multiplicationStroop,2021.2.3,Win32,49.94506043,,,,,left,1,0.508,0,71,71,42,1,3,8,3 | 8,5,1.9756,1.4111,incongruent,left,,,,,,stimulusFile/physical.xlsx,,,,,,,,,,,,,,,,,,,,,,,,,,,,,,,
,,,,,,,,,,,,,,,831,2022-01-12_18h41.14.712,multiplicationStroop,2021.2.3,Win32,49.94506043,,,,,,,,,,,,,,,,,,,,,0,0,0,1,1,stimulusFile/physical.xlsx,PHYSICALLY larger.,images/physicallyLarger.png,,,,,,,,,,,,,,,,,,,,,,,,,,,,,
,,,,,,,,,,,,,,,831,2022-01-12_18h41.14.712,multiplicationStroop,2021.2.3,Win32,49.94506043,space,4.1018,space,79.6766,right,1,1.0723,0,0,0,40,1,1,6,1 | 6,5,1.9756,1.4111,incongruent,right,,,,,,stimulusFile/magnitude.xlsx,,,,,,,,,,,,,,,,,,,,,,,,,,,,,,,
,,,,,,,,,,,,,,,831,2022-01-12_18h41.14.712,multiplicationStroop,2021.2.3,Win32,49.94506043,,,,,right,1,0.7267,0,1,1,48,1,1,2,1 | 2,1,1.6933,1.6933,neutral,right,,,,,,stimulusFile/magnitude.xlsx,,,,,,,,,,,,,,,,,,,,,,,,,,,,,,,
,,,,,,,,,,,,,,,831,2022-01-12_18h41.14.712,multiplicationStroop,2021.2.3,Win32,49.94506043,,,,,left,1,0.7819,0,2,2,39,1,9,7,9 | 7,2,1.4111,1.9756,incongruent,left,,,,,,stimulusFile/magnitude.xlsx,,,,,,,,,,,,,,,,,,,,,,,,,,,,,,,
,,,,,,,,,,,,,,,831,2022-01-12_18h41.14.712,multiplicationStroop,2021.2.3,Win32,49.94506043,,,,,right,1,0.5888,0,3,3,3,1,8,9,8 | 9,1,1.4111,1.9756,congruent,right,,,,,,stimulusFile/magnitude.xlsx,,,,,,,,,,,,,,,,,,,,,,,,,,,,,,,
,,,,,,,,,,,,,,,831,2022-01-12_18h41.14.712,multiplicationStroop,2021.2.3,Win32,49.94506043,,,,,right,1,0.5018,0,4,4,8,1,1,3,1 | 3,2,1.4111,1.9756,congruent,right,,,,,,stimulusFile/magnitude.xlsx,,,,,,,,,,,,,,,,,,,,,,,,,,,,,,,
,,,,,,,,,,,,,,,831,2022-01-12_18h41.14.712,multiplicationStroop,2021.2.3,Win32,49.94506043,,,,,left,1,0.7269,0,5,5,29,1,4,3,4 | 3,1,1.4111,1.9756,incongruent,left,,,,,,stimulusFile/magnitude.xlsx,,,,,,,,,,,,,,,,,,,,,,,,,,,,,,,
,,,,,,,,,,,,,,,831,2022-01-12_18h41.14.712,multiplicationStroop,2021.2.3,Win32,49.94506043,,,,,left,1,0.6273,0,6,6,37,1,4,2,4 | 2,2,1.4111,1.9756,incongruent,left,,,,,,stimulusFile/magnitude.xlsx,,,,,,,,,,,,,,,,,,,,,,,,,,,,,,,
,,,,,,,,,,,,,,,831,2022-01-12_18h41.14.712,multiplicationStroop,2021.2.3,Win32,49.94506043,,,,,right,1,0.5142,0,7,7,11,1,7,9,7 | 9,2,1.4111,1.9756,congruent,right,,,,,,stimulusFile/magnitude.xlsx,,,,,,,,,,,,,,,,,,,,,,,,,,,,,,,
,,,,,,,,,,,,,,,831,2022-01-12_18h41.14.712,multiplicationStroop,2021.2.3,Win32,49.94506043,,,,,left,1,0.4215,0,8,8,23,1,9,4,9 | 4,5,1.9756,1.4111,congruent,left,,,,,,stimulusFile/magnitude.xlsx,,,,,,,,,,,,,,,,,,,,,,,,,,,,,,,
,,,,,,,,,,,,,,,831,2022-01-12_18h41.14.712,multiplicationStroop,2021.2.3,Win32,49.94506043,,,,,left,1,0.5013,0,9,9,68,1,6,1,6 | 1,5,1.6933,1.6933,neutral,left,,,,,,stimulusFile/magnitude.xlsx,,,,,,,,,,,,,,,,,,,,,,,,,,,,,,,
,,,,,,,,,,,,,,,831,2022-01-12_18h41.14.712,multiplicationStroop,2021.2.3,Win32,49.94506043,,,,,right,1,0.4655,0,10,10,67,1,4,9,4 | 9,5,1.6933,1.6933,neutral,right,,,,,,stimulusFile/magnitude.xlsx,,,,,,,,,,,,,,,,,,,,,,,,,,,,,,,
,,,,,,,,,,,,,,,831,2022-01-12_18h41.14.712,multiplicationStroop,2021.2.3,Win32,49.94506043,,,,,left,1,0.5677,0,11,11,46,1,8,3,8 | 3,5,1.4111,1.9756,incongruent,left,,,,,,stimulusFile/magnitude.xlsx,,,,,,,,,,,,,,,,,,,,,,,,,,,,,,,
,,,,,,,,,,,,,,,831,2022-01-12_18h41.14.712,multiplicationStroop,2021.2.3,Win32,49.94506043,,,,,left,1,0.7696,0,12,12,30,1,7,6,7 | 6,1,1.4111,1.9756,incongruent,left,,,,,,stimulusFile/magnitude.xlsx,,,,,,,,,,,,,,,,,,,,,,,,,,,,,,,
,,,,,,,,,,,,,,,831,2022-01-12_18h41.14.712,multiplicationStroop,2021.2.3,Win32,49.94506043,,,,,right,1,0.7017,0,13,13,64,1,1,6,1 | 6,5,1.6933,1.6933,neutral,right,,,,,,stimulusFile/magnitude.xlsx,,,,,,,,,,,,,,,,,,,,,,,,,,,,,,,
,,,,,,,,,,,,,,,831,2022-01-12_18h41.14.712,multiplicationStroop,2021.2.3,Win32,49.94506043,,,,,left,1,0.6459,0,14,14,31,1,9,8,9 | 8,1,1.4111,1.9756,incongruent,left,,,,,,stimulusFile/magnitude.xlsx,,,,,,,,,,,,,,,,,,,,,,,,,,,,,,,
,,,,,,,,,,,,,,,831,2022-01-12_18h41.14.712,multiplicationStroop,2021.2.3,Win32,49.94506043,,,,,right,1,0.585,0,15,15,17,1,2,7,2 | 7,5,1.4111,1.9756,congruent,right,,,,,,stimulusFile/magnitude.xlsx,,,,,,,,,,,,,,,,,,,,,,,,,,,,,,,
,,,,,,,,,,,,,,,831,2022-01-12_18h41.14.712,multiplicationStroop,2021.2.3,Win32,49.94506043,,,,,right,1,0.7529,0,16,16,58,1,6,8,6 | 8,2,1.6933,1.6933,neutral,right,,,,,,stimulusFile/magnitude.xlsx,,,,,,,,,,,,,,,,,,,,,,,,,,,,,,,
,,,,,,,,,,,,,,,831,2022-01-12_18h41.14.712,multiplicationStroop,2021.2.3,Win32,49.94506043,,,,,left,1,1.0735,0,17,17,54,1,7,6,7 | 6,1,1.6933,1.6933,neutral,left,,,,,,stimulusFile/magnitude.xlsx,,,,,,,,,,,,,,,,,,,,,,,,,,,,,,,
,,,,,,,,,,,,,,,831,2022-01-12_18h41.14.712,multiplicationStroop,2021.2.3,Win32,49.94506043,,,,,left,0,0.6814,0,18,18,27,1,8,9,8 | 9,1,1.9756,1.4111,incongruent,right,,,,,,stimulusFile/magnitude.xlsx,,,,,,,,,,,,,,,,,,,,,,,,,,,,,,,
,,,,,,,,,,,,,,,831,2022-01-12_18h41.14.712,multiplicationStroop,2021.2.3,Win32,49.94506043,,,,,left,1,0.8536,0,19,19,6,1,7,6,7 | 6,1,1.9756,1.4111,congruent,left,,,,,,stimulusFile/magnitude.xlsx,,,,,,,,,,,,,,,,,,,,,,,,,,,,,,,
,,,,,,,,,,,,,,,831,2022-01-12_18h41.14.712,multiplicationStroop,2021.2.3,Win32,49.94506043,,,,,left,1,0.9452,0,20,20,63,1,9,7,9 | 7,2,1.6933,1.6933,neutral,left,,,,,,stimulusFile/magnitude.xlsx,,,,,,,,,,,,,,,,,,,,,,,,,,,,,,,
,,,,,,,,,,,,,,,831,2022-01-12_18h41.14.712,multiplicationStroop,2021.2.3,Win32,49.94506043,,,,,right,1,0.6662,0,21,21,25,1,3,4,3 | 4,1,1.9756,1.4111,incongruent,right,,,,,,stimulusFile/magnitude.xlsx,,,,,,,,,,,,,,,,,,,,,,,,,,,,,,,
,,,,,,,,,,,,,,,831,2022-01-12_18h41.14.712,multiplicationStroop,2021.2.3,Win32,49.94506043,,,,,left,1,0.6101,0,22,22,45,1,7,2,7 | 2,5,1.4111,1.9756,incongruent,left,,,,,,stimulusFile/magnitude.xlsx,,,,,,,,,,,,,,,,,,,,,,,,,,,,,,,
,,,,,,,,,,,,,,,831,2022-01-12_18h41.14.712,multiplicationStroop,2021.2.3,Win32,49.94506043,,,,,left,1,0.6542,0,23,23,38,1,8,6,8 | 6,2,1.4111,1.9756,incongruent,left,,,,,,stimulusFile/magnitude.xlsx,,,,,,,,,,,,,,,,,,,,,,,,,,,,,,,
,,,,,,,,,,,,,,,831,2022-01-12_18h41.14.712,multiplicationStroop,2021.2.3,Win32,49.94506043,,,,,right,1,0.6216,0,24,24,57,1,2,4,2 | 4,2,1.6933,1.6933,neutral,right,,,,,,stimulusFile/magnitude.xlsx,,,,,,,,,,,,,,,,,,,,,,,,,,,,,,,
,,,,,,,,,,,,,,,831,2022-01-12_18h41.14.712,multiplicationStroop,2021.2.3,Win32,49.94506043,,,,,left,1,0.662,0,25,25,53,1,4,3,4 | 3,1,1.6933,1.6933,neutral,left,,,,,,stimulusFile/magnitude.xlsx,,,,,,,,,,,,,,,,,,,,,,,,,,,,,,,
,,,,,,,,,,,,,,,831,2022-01-12_18h41.14.712,multiplicationStroop,2021.2.3,Win32,49.94506043,,,,,right,1,0.5821,0,26,26,10,1,6,8,6 | 8,2,1.4111,1.9756,congruent,right,,,,,,stimulusFile/magnitude.xlsx,,,,,,,,,,,,,,,,,,,,,,,,,,,,,,,
,,,,,,,,,,,,,,,831,2022-01-12_18h41.14.712,multiplicationStroop,2021.2.3,Win32,49.94506043,,,,,right,1,0.5019,0,27,27,18,1,3,8,3 | 8,5,1.4111,1.9756,congruent,right,,,,,,stimulusFile/magnitude.xlsx,,,,,,,,,,,,,,,,,,,,,,,,,,,,,,,
,,,,,,,,,,,,,,,831,2022-01-12_18h41.14.712,multiplicationStroop,2021.2.3,Win32,49.94506043,,,,,left,1,0.6518,0,28,28,28,1,2,1,2 | 1,1,1.4111,1.9756,incongruent,left,,,,,,stimulusFile/magnitude.xlsx,,,,,,,,,,,,,,,,,,,,,,,,,,,,,,,
,,,,,,,,,,,,,,,831,2022-01-12_18h41.14.712,multiplicationStroop,2021.2.3,Win32,49.94506043,,,,,left,1,0.648,0,29,29,7,1,9,8,9 | 8,1,1.9756,1.4111,congruent,left,,,,,,stimulusFile/magnitude.xlsx,,,,,,,,,,,,,,,,,,,,,,,,,,,,,,,
,,,,,,,,,,,,,,,831,2022-01-12_18h41.14.712,multiplicationStroop,2021.2.3,Win32,49.94506043,,,,,left,1,0.6214,0,30,30,36,1,3,1,3 | 1,2,1.4111,1.9756,incongruent,left,,,,,,stimulusFile/magnitude.xlsx,,,,,,,,,,,,,,,,,,,,,,,,,,,,,,,
,,,,,,,,,,,,,,,831,2022-01-12_18h41.14.712,multiplicationStroop,2021.2.3,Win32,49.94506043,,,,,left,1,0.462,0,31,31,4,1,2,1,2 | 1,1,1.9756,1.4111,congruent,left,,,,,,stimulusFile/magnitude.xlsx,,,,,,,,,,,,,,,,,,,,,,,,,,,,,,,
,,,,,,,,,,,,,,,831,2022-01-12_18h41.14.712,multiplicationStroop,2021.2.3,Win32,49.94506043,,,,,left,1,0.5891,0,32,32,71,1,9,4,9 | 4,5,1.6933,1.6933,neutral,left,,,,,,stimulusFile/magnitude.xlsx,,,,,,,,,,,,,,,,,,,,,,,,,,,,,,,
,,,,,,,,,,,,,,,831,2022-01-12_18h41.14.712,multiplicationStroop,2021.2.3,Win32,49.94506043,,,,,right,1,0.722,0,33,33,33,1,2,4,2 | 4,2,1.9756,1.4111,incongruent,right,,,,,,stimulusFile/magnitude.xlsx,,,,,,,,,,,,,,,,,,,,,,,,,,,,,,,
,,,,,,,,,,,,,,,831,2022-01-12_18h41.14.712,multiplicationStroop,2021.2.3,Win32,49.94506043,,,,,right,1,0.6173,0,34,34,32,1,1,3,1 | 3,2,1.9756,1.4111,incongruent,right,,,,,,stimulusFile/magnitude.xlsx,,,,,,,,,,,,,,,,,,,,,,,,,,,,,,,
,,,,,,,,,,,,,,,831,2022-01-12_18h41.14.712,multiplicationStroop,2021.2.3,Win32,49.94506043,,,,,left,1,0.6223,0,35,35,5,1,4,3,4 | 3,1,1.9756,1.4111,congruent,left,,,,,,stimulusFile/magnitude.xlsx,,,,,,,,,,,,,,,,,,,,,,,,,,,,,,,
,,,,,,,,,,,,,,,831,2022-01-12_18h41.14.712,multiplicationStroop,2021.2.3,Win32,49.94506043,,,,,left,1,0.6022,0,36,36,44,1,6,1,6 | 1,5,1.4111,1.9756,incongruent,left,,,,,,stimulusFile/magnitude.xlsx,,,,,,,,,,,,,,,,,,,,,,,,,,,,,,,
,,,,,,,,,,,,,,,831,2022-01-12_18h41.14.712,multiplicationStroop,2021.2.3,Win32,49.94506043,,,,,left,1,0.554,0,37,37,62,1,8,6,8 | 6,2,1.6933,1.6933,neutral,left,,,,,,stimulusFile/magnitude.xlsx,,,,,,,,,,,,,,,,,,,,,,,,,,,,,,,
,,,,,,,,,,,,,,,831,2022-01-12_18h41.14.712,multiplicationStroop,2021.2.3,Win32,49.94506043,,,,,right,1,0.545,0,38,38,24,1,1,2,1 | 2,1,1.9756,1.4111,incongruent,right,,,,,,stimulusFile/magnitude.xlsx,,,,,,,,,,,,,,,,,,,,,,,,,,,,,,,
,,,,,,,,,,,,,,,831,2022-01-12_18h41.14.712,multiplicationStroop,2021.2.3,Win32,49.94506043,,,,,left,1,0.5167,0,39,39,14,1,8,6,8 | 6,2,1.9756,1.4111,congruent,left,,,,,,stimulusFile/magnitude.xlsx,,,,,,,,,,,,,,,,,,,,,,,,,,,,,,,
,,,,,,,,,,,,,,,831,2022-01-12_18h41.14.712,multiplicationStroop,2021.2.3,Win32,49.94506043,,,,,right,1,0.6334,0,40,40,35,1,7,9,7 | 9,2,1.9756,1.4111,incongruent,right,,,,,,stimulusFile/magnitude.xlsx,,,,,,,,,,,,,,,,,,,,,,,,,,,,,,,
,,,,,,,,,,,,,,,831,2022-01-12_18h41.14.712,multiplicationStroop,2021.2.3,Win32,49.94506043,,,,,left,1,0.5422,0,41,41,47,1,9,4,9 | 4,5,1.4111,1.9756,incongruent,left,,,,,,stimulusFile/magnitude.xlsx,,,,,,,,,,,,,,,,,,,,,,,,,,,,,,,
,,,,,,,,,,,,,,,831,2022-01-12_18h41.14.712,multiplicationStroop,2021.2.3,Win32,49.94506043,,,,,left,1,0.6118,0,42,42,13,1,4,2,4 | 2,2,1.9756,1.4111,congruent,left,,,,,,stimulusFile/magnitude.xlsx,,,,,,,,,,,,,,,,,,,,,,,,,,,,,,,
,,,,,,,,,,,,,,,831,2022-01-12_18h41.14.712,multiplicationStroop,2021.2.3,Win32,49.94506043,,,,,right,1,0.6304,0,43,43,41,1,2,7,2 | 7,5,1.9756,1.4111,incongruent,right,,,,,,stimulusFile/magnitude.xlsx,,,,,,,,,,,,,,,,,,,,,,,,,,,,,,,
,,,,,,,,,,,,,,,831,2022-01-12_18h41.14.712,multiplicationStroop,2021.2.3,Win32,49.94506043,,,,,right,1,0.5222,0,44,44,56,1,1,3,1 | 3,2,1.6933,1.6933,neutral,right,,,,,,stimulusFile/magnitude.xlsx,,,,,,,,,,,,,,,,,,,,,,,,,,,,,,,
,,,,,,,,,,,,,,,831,2022-01-12_18h41.14.712,multiplicationStroop,2021.2.3,Win32,49.94506043,,,,,left,1,0.615,0,45,45,52,1,2,1,2 | 1,1,1.6933,1.6933,neutral,left,,,,,,stimulusFile/magnitude.xlsx,,,,,,,,,,,,,,,,,,,,,,,,,,,,,,,
,,,,,,,,,,,,,,,831,2022-01-12_18h41.14.712,multiplicationStroop,2021.2.3,Win32,49.94506043,,,,,right,1,0.6472,0,46,46,9,1,2,4,2 | 4,2,1.4111,1.9756,congruent,right,,,,,,stimulusFile/magnitude.xlsx,,,,,,,,,,,,,,,,,,,,,,,,,,,,,,,
,,,,,,,,,,,,,,,831,2022-01-12_18h41.14.712,multiplicationStroop,2021.2.3,Win32,49.94506043,,,,,left,1,0.5223,0,47,47,12,1,3,1,3 | 1,2,1.9756,1.4111,congruent,left,,,,,,stimulusFile/magnitude.xlsx,,,,,,,,,,,,,,,,,,,,,,,,,,,,,,,
,,,,,,,,,,,,,,,831,2022-01-12_18h41.14.712,multiplicationStroop,2021.2.3,Win32,49.94506043,,,,,left,1,0.5223,0,48,48,70,1,8,3,8 | 3,5,1.6933,1.6933,neutral,left,,,,,,stimulusFile/magnitude.xlsx,,,,,,,,,,,,,,,,,,,,,,,,,,,,,,,
,,,,,,,,,,,,,,,831,2022-01-12_18h41.14.712,multiplicationStroop,2021.2.3,Win32,49.94506043,,,,,right,1,0.7212,0,49,49,34,1,6,8,6 | 8,2,1.9756,1.4111,incongruent,right,,,,,,stimulusFile/magnitude.xlsx,,,,,,,,,,,,,,,,,,,,,,,,,,,,,,,
,,,,,,,,,,,,,,,831,2022-01-12_18h41.14.712,multiplicationStroop,2021.2.3,Win32,49.94506043,,,,,right,1,0.5221,0,50,50,0,1,1,2,1 | 2,1,1.4111,1.9756,congruent,right,,,,,,stimulusFile/magnitude.xlsx,,,,,,,,,,,,,,,,,,,,,,,,,,,,,,,
,,,,,,,,,,,,,,,831,2022-01-12_18h41.14.712,multiplicationStroop,2021.2.3,Win32,49.94506043,,,,,right,1,0.5421,0,51,51,65,1,2,7,2 | 7,5,1.6933,1.6933,neutral,right,,,,,,stimulusFile/magnitude.xlsx,,,,,,,,,,,,,,,,,,,,,,,,,,,,,,,
,,,,,,,,,,,,,,,831,2022-01-12_18h41.14.712,multiplicationStroop,2021.2.3,Win32,49.94506043,,,,,right,1,1.0293,0,52,52,26,1,6,7,6 | 7,1,1.9756,1.4111,incongruent,right,,,,,,stimulusFile/magnitude.xlsx,,,,,,,,,,,,,,,,,,,,,,,,,,,,,,,
,,,,,,,,,,,,,,,831,2022-01-12_18h41.14.712,multiplicationStroop,2021.2.3,Win32,49.94506043,,,,,left,1,0.6875,0,53,53,22,1,8,3,8 | 3,5,1.9756,1.4111,congruent,left,,,,,,stimulusFile/magnitude.xlsx,,,,,,,,,,,,,,,,,,,,,,,,,,,,,,,
,,,,,,,,,,,,,,,831,2022-01-12_18h41.14.712,multiplicationStroop,2021.2.3,Win32,49.94506043,,,,,right,1,0.4905,0,54,54,16,1,1,6,1 | 6,5,1.4111,1.9756,congruent,right,,,,,,stimulusFile/magnitude.xlsx,,,,,,,,,,,,,,,,,,,,,,,,,,,,,,,
,,,,,,,,,,,,,,,831,2022-01-12_18h41.14.712,multiplicationStroop,2021.2.3,Win32,49.94506043,,,,,right,1,0.6632,0,55,55,42,1,3,8,3 | 8,5,1.9756,1.4111,incongruent,right,,,,,,stimulusFile/magnitude.xlsx,,,,,,,,,,,,,,,,,,,,,,,,,,,,,,,
,,,,,,,,,,,,,,,831,2022-01-12_18h41.14.712,multiplicationStroop,2021.2.3,Win32,49.94506043,,,,,right,1,0.5671,0,56,56,50,1,6,7,6 | 7,1,1.6933,1.6933,neutral,right,,,,,,stimulusFile/magnitude.xlsx,,,,,,,,,,,,,,,,,,,,,,,,,,,,,,,
,,,,,,,,,,,,,,,831,2022-01-12_18h41.14.712,multiplicationStroop,2021.2.3,Win32,49.94506043,,,,,right,1,0.5656,0,57,57,19,1,4,9,4 | 9,5,1.4111,1.9756,congruent,right,,,,,,stimulusFile/magnitude.xlsx,,,,,,,,,,,,,,,,,,,,,,,,,,,,,,,
,,,,,,,,,,,,,,,831,2022-01-12_18h41.14.712,multiplicationStroop,2021.2.3,Win32,49.94506043,,,,,left,1,0.4656,0,58,58,21,1,7,2,7 | 2,5,1.9756,1.4111,congruent,left,,,,,,stimulusFile/magnitude.xlsx,,,,,,,,,,,,,,,,,,,,,,,,,,,,,,,
,,,,,,,,,,,,,,,831,2022-01-12_18h41.14.712,multiplicationStroop,2021.2.3,Win32,49.94506043,,,,,left,1,0.6824,0,59,59,60,1,3,1,3 | 1,2,1.6933,1.6933,neutral,left,,,,,,stimulusFile/magnitude.xlsx,,,,,,,,,,,,,,,,,,,,,,,,,,,,,,,
,,,,,,,,,,,,,,,831,2022-01-12_18h41.14.712,multiplicationStroop,2021.2.3,Win32,49.94506043,,,,,right,1,0.565,0,60,60,49,1,3,4,3 | 4,1,1.6933,1.6933,neutral,right,,,,,,stimulusFile/magnitude.xlsx,,,,,,,,,,,,,,,,,,,,,,,,,,,,,,,
,,,,,,,,,,,,,,,831,2022-01-12_18h41.14.712,multiplicationStroop,2021.2.3,Win32,49.94506043,,,,,right,1,0.5452,0,61,61,43,1,4,9,4 | 9,5,1.9756,1.4111,incongruent,right,,,,,,stimulusFile/magnitude.xlsx,,,,,,,,,,,,,,,,,,,,,,,,,,,,,,,
,,,,,,,,,,,,,,,831,2022-01-12_18h41.14.712,multiplicationStroop,2021.2.3,Win32,49.94506043,,,,,right,1,0.561,0,62,62,51,1,8,9,8 | 9,1,1.6933,1.6933,neutral,right,,,,,,stimulusFile/magnitude.xlsx,,,,,,,,,,,,,,,,,,,,,,,,,,,,,,,
,,,,,,,,,,,,,,,831,2022-01-12_18h41.14.712,multiplicationStroop,2021.2.3,Win32,49.94506043,,,,,left,1,0.6572,0,63,63,15,1,9,7,9 | 7,2,1.9756,1.4111,congruent,left,,,,,,stimulusFile/magnitude.xlsx,,,,,,,,,,,,,,,,,,,,,,,,,,,,,,,
,,,,,,,,,,,,,,,831,2022-01-12_18h41.14.712,multiplicationStroop,2021.2.3,Win32,49.94506043,,,,,left,1,0.6833,0,64,64,69,1,7,2,7 | 2,5,1.6933,1.6933,neutral,left,,,,,,stimulusFile/magnitude.xlsx,,,,,,,,,,,,,,,,,,,,,,,,,,,,,,,
,,,,,,,,,,,,,,,831,2022-01-12_18h41.14.712,multiplicationStroop,2021.2.3,Win32,49.94506043,,,,,right,1,0.4548,0,65,65,66,1,3,8,3 | 8,5,1.6933,1.6933,neutral,right,,,,,,stimulusFile/magnitude.xlsx,,,,,,,,,,,,,,,,,,,,,,,,,,,,,,,
,,,,,,,,,,,,,,,831,2022-01-12_18h41.14.712,multiplicationStroop,2021.2.3,Win32,49.94506043,,,,,right,1,0.667,0,66,66,1,1,3,4,3 | 4,1,1.4111,1.9756,congruent,right,,,,,,stimulusFile/magnitude.xlsx,,,,,,,,,,,,,,,,,,,,,,,,,,,,,,,
,,,,,,,,,,,,,,,831,2022-01-12_18h41.14.712,multiplicationStroop,2021.2.3,Win32,49.94506043,,,,,left,1,0.9416,0,67,67,55,1,9,8,9 | 8,1,1.6933,1.6933,neutral,left,,,,,,stimulusFile/magnitude.xlsx,,,,,,,,,,,,,,,,,,,,,,,,,,,,,,,
,,,,,,,,,,,,,,,831,2022-01-12_18h41.14.712,multiplicationStroop,2021.2.3,Win32,49.94506043,,,,,left,1,0.4933,0,68,68,20,1,6,1,6 | 1,5,1.9756,1.4111,congruent,left,,,,,,stimulusFile/magnitude.xlsx,,,,,,,,,,,,,,,,,,,,,,,,,,,,,,,
,,,,,,,,,,,,,,,831,2022-01-12_18h41.14.712,multiplicationStroop,2021.2.3,Win32,49.94506043,,,,,left,1,0.8626,0,69,69,61,1,4,2,4 | 2,2,1.6933,1.6933,neutral,left,,,,,,stimulusFile/magnitude.xlsx,,,,,,,,,,,,,,,,,,,,,,,,,,,,,,,
,,,,,,,,,,,,,,,831,2022-01-12_18h41.14.712,multiplicationStroop,2021.2.3,Win32,49.94506043,,,,,right,1,0.5116,0,70,70,59,1,7,9,7 | 9,2,1.6933,1.6933,neutral,right,,,,,,stimulusFile/magnitude.xlsx,,,,,,,,,,,,,,,,,,,,,,,,,,,,,,,
,,,,,,,,,,,,,,,831,2022-01-12_18h41.14.712,multiplicationStroop,2021.2.3,Win32,49.94506043,,,,,right,1,1.2618,0,71,71,2,1,6,7,6 | 7,1,1.4111,1.9756,congruent,right,,,,,,stimulusFile/magnitude.xlsx,,,,,,,,,,,,,,,,,,,,,,,,,,,,,,,
,,,,,,,,,,,,,,,831,2022-01-12_18h41.14.712,multiplicationStroop,2021.2.3,Win32,49.94506043,,,,,,,,,,,,,,,,,,,,,0,1,1,0,1,stimulusFile/magnitude.xlsx,NUMERICALLY larger.,images/numericallyLarger.png,,,,,,,,,,,,,,,,,,,,,,,,,,,,,
,,,,,,,,,,,,,,,831,2022-01-12_18h41.14.712,multiplicationStroop,2021.2.3,Win32,49.94506043,,,,,,,,,,,,,,,,,,,,,,,,,,,,,space,13.134,space,57.4162,14,2.0952,1,0,0,0,18,1,7,×,2,7 × 2,incongruent,largerFirst,1,2,14,,,,,,,,
,,,,,,,,,,,,,,,831,2022-01-12_18h41.14.712,multiplicationStroop,2021.2.3,Win32,49.94506043,,,,,,,,,,,,,,,,,,,,,,,,,,,,,,,,,6,1.5387,1,0,1,1,25,1,3,×,2,3 × 2,incongruent,largerFirst,1,2,6,,,,,,,,
,,,,,,,,,,,,,,,831,2022-01-12_18h41.14.712,multiplicationStroop,2021.2.3,Win32,49.94506043,,,,,,,,,,,,,,,,,,,,,,,,,,,,,,,,,45,1.779,1,0,2,2,8,1,5,×,9,5 × 9,incongruent,smallerFirst,2,1,45,,,,,,,,
,,,,,,,,,,,,,,,831,2022-01-12_18h41.14.712,multiplicationStroop,2021.2.3,Win32,49.94506043,,,,,,,,,,,,,,,,,,,,,,,,,,,,,,,,,49,1.9191,1,0,3,3,33,1,7,×,7,7 × 7,neutral,tie,2,1,49,,,,,,,,
,,,,,,,,,,,,,,,831,2022-01-12_18h41.14.712,multiplicationStroop,2021.2.3,Win32,49.94506043,,,,,,,,,,,,,,,,,,,,,,,,,,,,,,,,,21,1.4791,1,0,4,4,12,1,3,×,7,3 × 7,incongruent,smallerFirst,2,1,21,,,,,,,,
,,,,,,,,,,,,,,,831,2022-01-12_18h41.14.712,multiplicationStroop,2021.2.3,Win32,49.94506043,,,,,,,,,,,,,,,,,,,,,,,,,,,,,,,,,16,1.5589,1,0,5,5,30,1,4,×,4,4 × 4,neutral,tie,2,1,16,,,,,,,,
,,,,,,,,,,,,,,,831,2022-01-12_18h41.14.712,multiplicationStroop,2021.2.3,Win32,49.94506043,,,,,,,,,,,,,,,,,,,,,,,,,,,,,,,,,18,1.9191,1,0,6,6,22,1,6,×,3,6 × 3,incongruent,largerFirst,1,2,18,,,,,,,,
,,,,,,,,,,,,,,,831,2022-01-12_18h41.14.712,multiplicationStroop,2021.2.3,Win32,49.94506043,,,,,,,,,,,,,,,,,,,,,,,,,,,,,,,,,15,1.4593,1,0,7,7,24,1,5,×,3,5 × 3,incongruent,largerFirst,1,2,15,,,,,,,,
,,,,,,,,,,,,,,,831,2022-01-12_18h41.14.712,multiplicationStroop,2021.2.3,Win32,49.94506043,,,,,,,,,,,,,,,,,,,,,,,,,,,,,,,,,36,2.1591,1,0,8,8,1,1,4,×,9,4 × 9,incongruent,smallerFirst,2,1,36,,,,,,,,
,,,,,,,,,,,,,,,831,2022-01-12_18h41.14.712,multiplicationStroop,2021.2.3,Win32,49.94506043,,,,,,,,,,,,,,,,,,,,,,,,,,,,,,,,,20,1.7392,1,0,9,9,13,1,4,×,5,4 × 5,incongruent,smallerFirst,2,1,20,,,,,,,,
,,,,,,,,,,,,,,,831,2022-01-12_18h41.14.712,multiplicationStroop,2021.2.3,Win32,49.94506043,,,,,,,,,,,,,,,,,,,,,,,,,,,,,,,,,12,3.0791,1,0,10,10,5,1,2,×,6,2 × 6,incongruent,smallerFirst,2,1,12,,,,,,,,
,,,,,,,,,,,,,,,831,2022-01-12_18h41.14.712,multiplicationStroop,2021.2.3,Win32,49.94506043,,,,,,,,,,,,,,,,,,,,,,,,,,,,,,,,,18,1.6495,1,0,11,11,16,1,9,×,2,9 × 2,incongruent,largerFirst,1,2,18,,,,,,,,
,,,,,,,,,,,,,,,831,2022-01-12_18h41.14.712,multiplicationStroop,2021.2.3,Win32,49.94506043,,,,,,,,,,,,,,,,,,,,,,,,,,,,,,,,,24,1.9991,1,0,12,12,23,1,8,×,3,8 × 3,incongruent,largerFirst,1,2,24,,,,,,,,
,,,,,,,,,,,,,,,831,2022-01-12_18h41.14.712,multiplicationStroop,2021.2.3,Win32,49.94506043,,,,,,,,,,,,,,,,,,,,,,,,,,,,,,,,,63,2.8588,1,0,13,13,17,1,9,×,7,9 × 7,incongruent,largerFirst,1,2,63,,,,,,,,
,,,,,,,,,,,,,,,831,2022-01-12_18h41.14.712,multiplicationStroop,2021.2.3,Win32,49.94506043,,,,,,,,,,,,,,,,,,,,,,,,,,,,,,,,,8,1.6791,1,0,14,14,10,1,2,×,4,2 × 4,incongruent,smallerFirst,2,1,8,,,,,,,,
,,,,,,,,,,,,,,,831,2022-01-12_18h41.14.712,multiplicationStroop,2021.2.3,Win32,49.94506043,,,,,,,,,,,,,,,,,,,,,,,,,,,,,,,,,9,1.4392,1,0,15,15,29,1,3,×,3,3 × 3,neutral,tie,2,1,9,,,,,,,,
,,,,,,,,,,,,,,,831,2022-01-12_18h41.14.712,multiplicationStroop,2021.2.3,Win32,49.94506043,,,,,,,,,,,,,,,,,,,,,,,,,,,,,,,,,48,2.0191,1,0,16,16,15,1,8,×,6,8 × 6,incongruent,largerFirst,1,2,48,,,,,,,,
,,,,,,,,,,,,,,,831,2022-01-12_18h41.14.712,multiplicationStroop,2021.2.3,Win32,49.94506043,,,,,,,,,,,,,,,,,,,,,,,,,,,,,,,,,16,1.5592,1,0,17,17,9,1,2,×,8,2 × 8,incongruent,smallerFirst,2,1,16,,,,,,,,
,,,,,,,,,,,,,,,831,2022-01-12_18h41.14.712,multiplicationStroop,2021.2.3,Win32,49.94506043,,,,,,,,,,,,,,,,,,,,,,,,,,,,,,,,,30,3.439,1,0,18,18,11,1,5,×,6,5 × 6,incongruent,smallerFirst,2,1,30,,,,,,,,
,,,,,,,,,,,,,,,831,2022-01-12_18h41.14.712,multiplicationStroop,2021.2.3,Win32,49.94506043,,,,,,,,,,,,,,,,,,,,,,,,,,,,,,,,,72,3.5094,1,0,19,19,14,1,9,×,8,9 × 8,incongruent,largerFirst,1,2,72,,,,,,,,
,,,,,,,,,,,,,,,831,2022-01-12_18h41.14.712,multiplicationStroop,2021.2.3,Win32,49.94506043,,,,,,,,,,,,,,,,,,,,,,,,,,,,,,,,,54,2.0297,1,0,20,20,20,1,9,×,6,9 × 6,incongruent,largerFirst,1,2,54,,,,,,,,
,,,,,,,,,,,,,,,831,2022-01-12_18h41.14.712,multiplicationStroop,2021.2.3,Win32,49.94506043,,,,,,,,,,,,,,,,,,,,,,,,,,,,,,,,,35,1.7192,1,0,21,21,26,1,7,×,5,7 × 5,incongruent,largerFirst,1,2,35,,,,,,,,
,,,,,,,,,,,,,,,831,2022-01-12_18h41.14.712,multiplicationStroop,2021.2.3,Win32,49.94506043,,,,,,,,,,,,,,,,,,,,,,,,,,,,,,,,,10,1.8189,1,0,22,22,7,1,2,×,5,2 × 5,incongruent,smallerFirst,2,1,10,,,,,,,,
,,,,,,,,,,,,,,,831,2022-01-12_18h41.14.712,multiplicationStroop,2021.2.3,Win32,49.94506043,,,,,,,,,,,,,,,,,,,,,,,,,,,,,,,,,28,2.0191,1,0,23,23,2,1,4,×,7,4 × 7,incongruent,smallerFirst,2,1,28,,,,,,,,
,,,,,,,,,,,,,,,831,2022-01-12_18h41.14.712,multiplicationStroop,2021.2.3,Win32,49.94506043,,,,,,,,,,,,,,,,,,,,,,,,,,,,,,,,,12,1.5193,1,0,24,24,19,1,4,×,3,4 × 3,incongruent,largerFirst,1,2,12,,,,,,,,
,,,,,,,,,,,,,,,831,2022-01-12_18h41.14.712,multiplicationStroop,2021.2.3,Win32,49.94506043,,,,,,,,,,,,,,,,,,,,,,,,,,,,,,,,,40,1.7792,1,0,25,25,27,1,8,×,5,8 × 5,incongruent,largerFirst,1,2,40,,,,,,,,
,,,,,,,,,,,,,,,831,2022-01-12_18h41.14.712,multiplicationStroop,2021.2.3,Win32,49.94506043,,,,,,,,,,,,,,,,,,,,,,,,,,,,,,,,,24,2.3192,1,0,26,26,6,1,4,×,6,4 × 6,incongruent,smallerFirst,2,1,24,,,,,,,,
,,,,,,,,,,,,,,,831,2022-01-12_18h41.14.712,multiplicationStroop,2021.2.3,Win32,49.94506043,,,,,,,,,,,,,,,,,,,,,,,,,,,,,,,,,27,2.8492,1,0,27,27,4,1,3,×,9,3 × 9,incongruent,smallerFirst,2,1,27,,,,,,,,
,,,,,,,,,,,,,,,831,2022-01-12_18h41.14.712,multiplicationStroop,2021.2.3,Win32,49.94506043,,,,,,,,,,,,,,,,,,,,,,,,,,,,,,,,,32,2.0392,1,0,28,28,21,1,8,×,4,8 × 4,incongruent,largerFirst,1,2,32,,,,,,,,
,,,,,,,,,,,,,,,831,2022-01-12_18h41.14.712,multiplicationStroop,2021.2.3,Win32,49.94506043,,,,,,,,,,,,,,,,,,,,,,,,,,,,,,,,,81,3.0789,1,0,29,29,35,1,9,×,9,9 × 9,neutral,tie,2,1,81,,,,,,,,
,,,,,,,,,,,,,,,831,2022-01-12_18h41.14.712,multiplicationStroop,2021.2.3,Win32,49.94506043,,,,,,,,,,,,,,,,,,,,,,,,,,,,,,,,,4,1.3099,1,0,30,30,28,1,2,×,2,2 × 2,neutral,tie,2,1,4,,,,,,,,
,,,,,,,,,,,,,,,831,2022-01-12_18h41.14.712,multiplicationStroop,2021.2.3,Win32,49.94506043,,,,,,,,,,,,,,,,,,,,,,,,,,,,,,,,,36,1.819,1,0,31,31,32,1,6,×,6,6 × 6,neutral,tie,2,1,36,,,,,,,,
,,,,,,,,,,,,,,,831,2022-01-12_18h41.14.712,multiplicationStroop,2021.2.3,Win32,49.94506043,,,,,,,,,,,,,,,,,,,,,,,,,,,,,,,,,64,2.5791,1,0,32,32,34,1,8,×,8,8 × 8,neutral,tie,2,1,64,,,,,,,,
,,,,,,,,,,,,,,,831,2022-01-12_18h41.14.712,multiplicationStroop,2021.2.3,Win32,49.94506043,,,,,,,,,,,,,,,,,,,,,,,,,,,,,,,,,25,1.7791,1,0,33,33,31,1,5,×,5,5 × 5,neutral,tie,2,1,25,,,,,,,,
,,,,,,,,,,,,,,,831,2022-01-12_18h41.14.712,multiplicationStroop,2021.2.3,Win32,49.94506043,,,,,,,,,,,,,,,,,,,,,,,,,,,,,,,,,56,1.8192,1,0,34,34,0,1,7,×,8,7 × 8,incongruent,smallerFirst,2,1,56,,,,,,,,
,,,,,,,,,,,,,,,831,2022-01-12_18h41.14.712,multiplicationStroop,2021.2.3,Win32,49.94506043,,,,,,,,,,,,,,,,,,,,,,,,,,,,,,,,,42,2.1592,1,0,35,35,3,1,6,×,7,6 × 7,incongruent,smallerFirst,2,1,42,,,,,,,,
,,,,,,,,,,,,,,,831,2022-01-12_18h41.14.712,multiplicationStroop,2021.2.3,Win32,49.94506043,,,,,,,,,,,,,,,,,,,,,,,,,,,,,,,,,,,,,,,,,,,,,,,,,,0,0,0,4,1,stimulusFile/mult_blk5_INcongruent.xlsx,,
,,,,,,,,,,,,,,,831,2022-01-12_18h41.14.712,multiplicationStroop,2021.2.3,Win32,49.94506043,,,,,,,,,,,,,,,,,,,,,,,,,,,,,,,space,107.2668,24,1.4806,1,0,0,0,20,1,6,×,4,6 × 4,incongruent,largerFirst,1,2,24,,,,,,,,
,,,,,,,,,,,,,,,831,2022-01-12_18h41.14.712,multiplicationStroop,2021.2.3,Win32,49.94506043,,,,,,,,,,,,,,,,,,,,,,,,,,,,,,,,,36,1.599,1,0,1,1,15,1,9,×,4,9 × 4,incongruent,largerFirst,1,2,36,,,,,,,,
,,,,,,,,,,,,,,,831,2022-01-12_18h41.14.712,multiplicationStroop,2021.2.3,Win32,49.94506043,,,,,,,,,,,,,,,,,,,,,,,,,,,,,,,,,12,1.2792,1,0,2,2,19,1,6,×,2,6 × 2,incongruent,largerFirst,1,2,12,,,,,,,,
,,,,,,,,,,,,,,,831,2022-01-12_18h41.14.712,multiplicationStroop,2021.2.3,Win32,49.94506043,,,,,,,,,,,,,,,,,,,,,,,,,,,,,,,,,18,1.5791,1,0,3,3,8,1,3,×,6,3 × 6,incongruent,smallerFirst,2,1,18,,,,,,,,
,,,,,,,,,,,,,,,831,2022-01-12_18h41.14.712,multiplicationStroop,2021.2.3,Win32,49.94506043,,,,,,,,,,,,,,,,,,,,,,,,,,,,,,,,,9,1.4792,1,0,4,4,29,1,3,×,3,3 × 3,incongruent,tie,1,2,9,,,,,,,,
,,,,,,,,,,,,,,,831,2022-01-12_18h41.14.712,multiplicationStroop,2021.2.3,Win32,49.94506043,,,,,,,,,,,,,,,,,,,,,,,,,,,,,,,,,20,1.5991,1,0,5,5,27,1,5,×,4,5 × 4,incongruent,largerFirst,1,2,20,,,,,,,,
,,,,,,,,,,,,,,,831,2022-01-12_18h41.14.712,multiplicationStroop,2021.2.3,Win32,49.94506043,,,,,,,,,,,,,,,,,,,,,,,,,,,,,,,,,21,1.3192,1,0,6,6,26,1,7,×,3,7 × 3,incongruent,largerFirst,1,2,21,,,,,,,,
,,,,,,,,,,,,,,,831,2022-01-12_18h41.14.712,multiplicationStroop,2021.2.3,Win32,49.94506043,,,,,,,,,,,,,,,,,,,,,,,,,,,,,,,,,32,1.5192,1,0,7,7,7,1,4,×,8,4 × 8,incongruent,smallerFirst,2,1,32,,,,,,,,
,,,,,,,,,,,,,,,831,2022-01-12_18h41.14.712,multiplicationStroop,2021.2.3,Win32,49.94506043,,,,,,,,,,,,,,,,,,,,,,,,,,,,,,,,,45,1.619,1,0,8,8,22,1,9,×,5,9 × 5,incongruent,largerFirst,1,2,45,,,,,,,,
,,,,,,,,,,,,,,,831,2022-01-12_18h41.14.712,multiplicationStroop,2021.2.3,Win32,49.94506043,,,,,,,,,,,,,,,,,,,,,,,,,,,,,,,,,35,1.7991,1,0,9,9,12,1,5,×,7,5 × 7,incongruent,smallerFirst,2,1,35,,,,,,,,
,,,,,,,,,,,,,,,831,2022-01-12_18h41.14.712,multiplicationStroop,2021.2.3,Win32,49.94506043,,,,,,,,,,,,,,,,,,,,,,,,,,,,,,,,,25,1.7796,1,0,10,10,31,1,5,×,5,5 × 5,incongruent,tie,1,2,25,,,,,,,,
,,,,,,,,,,,,,,,831,2022-01-12_18h41.14.712,multiplicationStroop,2021.2.3,Win32,49.94506043,,,,,,,,,,,,,,,,,,,,,,,,,,,,,,,,,42,1.8389,1,0,11,11,17,1,7,×,6,7 × 6,incongruent,largerFirst,1,2,42,,,,,,,,
,,,,,,,,,,,,,,,831,2022-01-12_18h41.14.712,multiplicationStroop,2021.2.3,Win32,49.94506043,,,,,,,,,,,,,,,,,,,,,,,,,,,,,,,,,64,2.0589,1,0,12,12,34,1,8,×,8,8 × 8,incongruent,tie,1,2,64,,,,,,,,
,,,,,,,,,,,,,,,831,2022-01-12_18h41.14.712,multiplicationStroop,2021.2.3,Win32,49.94506043,,,,,,,,,,,,,,,,,,,,,,,,,,,,,,,,,16,1.5793,1,0,13,13,30,1,4,×,4,4 × 4,incongruent,tie,1,2,16,,,,,,,,
,,,,,,,,,,,,,,,831,2022-01-12_18h41.14.712,multiplicationStroop,2021.2.3,Win32,49.94506043,,,,,,,,,,,,,,,,,,,,,,,,,,,,,,,,,6,1.5793,1,0,14,14,11,1,2,×,3,2 × 3,incongruent,smallerFirst,2,1,6,,,,,,,,
,,,,,,,,,,,,,,,831,2022-01-12_18h41.14.712,multiplicationStroop,2021.2.3,Win32,49.94506043,,,,,,,,,,,,,,,,,,,,,,,,,,,,,,,,,28,1.8791,1,0,15,15,16,1,7,×,4,7 × 4,incongruent,largerFirst,1,2,28,,,,,,,,
,,,,,,,,,,,,,,,831,2022-01-12_18h41.14.712,multiplicationStroop,2021.2.3,Win32,49.94506043,,,,,,,,,,,,,,,,,,,,,,,,,,,,,,,,,36,1.8193,1,0,16,16,32,1,6,×,6,6 × 6,incongruent,tie,1,2,36,,,,,,,,
,,,,,,,,,,,,,,,831,2022-01-12_18h41.14.712,multiplicationStroop,2021.2.3,Win32,49.94506043,,,,,,,,,,,,,,,,,,,,,,,,,,,,,,,,,30,1.7191,1,0,17,17,25,1,6,×,5,6 × 5,incongruent,largerFirst,1,2,30,,,,,,,,
,,,,,,,,,,,,,,,831,2022-01-12_18h41.14.712,multiplicationStroop,2021.2.3,Win32,49.94506043,,,,,,,,,,,,,,,,,,,,,,,,,,,,,,,,,48,2.0392,1,0,18,18,1,1,6,×,8,6 × 8,incongruent,smallerFirst,2,1,48,,,,,,,,
,,,,,,,,,,,,,,,831,2022-01-12_18h41.14.712,multiplicationStroop,2021.2.3,Win32,49.94506043,,,,,,,,,,,,,,,,,,,,,,,,,,,,,,,,,81,3.579,1,0,19,19,35,1,9,×,9,9 × 9,incongruent,tie,1,2,81,,,,,,,,
,,,,,,,,,,,,,,,831,2022-01-12_18h41.14.712,multiplicationStroop,2021.2.3,Win32,49.94506043,,,,,,,,,,,,,,,,,,,,,,,,,,,,,,,,,63,2.2695,1,0,20,20,3,1,7,×,9,7 × 9,incongruent,smallerFirst,2,1,63,,,,,,,,
,,,,,,,,,,,,,,,831,2022-01-12_18h41.14.712,multiplicationStroop,2021.2.3,Win32,49.94506043,,,,,,,,,,,,,,,,,,,,,,,,,,,,,,,,,27,1.6993,1,0,21,21,18,1,9,×,3,9 × 3,incongruent,largerFirst,1,2,27,,,,,,,,
,,,,,,,,,,,,,,,831,2022-01-12_18h41.14.712,multiplicationStroop,2021.2.3,Win32,49.94506043,,,,,,,,,,,,,,,,,,,,,,,,,,,,,,,,,40,3.319,1,0,22,22,13,1,5,×,8,5 × 8,incongruent,smallerFirst,2,1,40,,,,,,,,
,,,,,,,,,,,,,,,831,2022-01-12_18h41.14.712,multiplicationStroop,2021.2.3,Win32,49.94506043,,,,,,,,,,,,,,,,,,,,,,,,,,,,,,,,,4,1.2498,1,0,23,23,28,1,2,×,2,2 × 2,incongruent,tie,1,2,4,,,,,,,,
,,,,,,,,,,,,,,,831,2022-01-12_18h41.14.712,multiplicationStroop,2021.2.3,Win32,49.94506043,,,,,,,,,,,,,,,,,,,,,,,,,,,,,,,,,15,2.7192,1,0,24,24,10,1,3,×,5,3 × 5,incongruent,smallerFirst,2,1,15,,,,,,,,
,,,,,,,,,,,,,,,831,2022-01-12_18h41.14.712,multiplicationStroop,2021.2.3,Win32,49.94506043,,,,,,,,,,,,,,,,,,,,,,,,,,,,,,,,,14,2.4873,1,0,25,25,4,1,2,×,7,2 × 7,incongruent,smallerFirst,2,1,14,,,,,,,,
,,,,,,,,,,,,,,,831,2022-01-12_18h41.14.712,multiplicationStroop,2021.2.3,Win32,49.94506043,,,,,,,,,,,,,,,,,,,,,,,,,,,,,,,,,8,1.4992,1,0,26,26,24,1,4,×,2,4 × 2,incongruent,largerFirst,1,2,8,,,,,,,,
,,,,,,,,,,,,,,,831,2022-01-12_18h41.14.712,multiplicationStroop,2021.2.3,Win32,49.94506043,,,,,,,,,,,,,,,,,,,,,,,,,,,,,,,,,18,1.719,1,0,27,27,2,1,2,×,9,2 × 9,incongruent,smallerFirst,2,1,18,,,,,,,,
,,,,,,,,,,,,,,,831,2022-01-12_18h41.14.712,multiplicationStroop,2021.2.3,Win32,49.94506043,,,,,,,,,,,,,,,,,,,,,,,,,,,,,,,,,56,3.4392,1,0,28,28,14,1,8,×,7,8 × 7,incongruent,largerFirst,1,2,56,,,,,,,,
,,,,,,,,,,,,,,,831,2022-01-12_18h41.14.712,multiplicationStroop,2021.2.3,Win32,49.94506043,,,,,,,,,,,,,,,,,,,,,,,,,,,,,,,,,10,1.7191,1,0,29,29,21,1,5,×,2,5 × 2,incongruent,largerFirst,1,2,10,,,,,,,,
,,,,,,,,,,,,,,,831,2022-01-12_18h41.14.712,multiplicationStroop,2021.2.3,Win32,49.94506043,,,,,,,,,,,,,,,,,,,,,,,,,,,,,,,,,24,3.0788,1,0,30,30,9,1,3,×,8,3 × 8,incongruent,smallerFirst,2,1,24,,,,,,,,
,,,,,,,,,,,,,,,831,2022-01-12_18h41.14.712,multiplicationStroop,2021.2.3,Win32,49.94506043,,,,,,,,,,,,,,,,,,,,,,,,,,,,,,,,,72,3.9094,1,0,31,31,0,1,8,×,9,8 × 9,incongruent,smallerFirst,2,1,72,,,,,,,,
,,,,,,,,,,,,,,,831,2022-01-12_18h41.14.712,multiplicationStroop,2021.2.3,Win32,49.94506043,,,,,,,,,,,,,,,,,,,,,,,,,,,,,,,,,49,2.2893,1,0,32,32,33,1,7,×,7,7 × 7,incongruent,tie,1,2,49,,,,,,,,
,,,,,,,,,,,,,,,831,2022-01-12_18h41.14.712,multiplicationStroop,2021.2.3,Win32,49.94506043,,,,,,,,,,,,,,,,,,,,,,,,,,,,,,,,,12,1.5792,1,0,33,33,5,1,3,×,4,3 × 4,incongruent,smallerFirst,2,1,12,,,,,,,,
,,,,,,,,,,,,,,,831,2022-01-12_18h41.14.712,multiplicationStroop,2021.2.3,Win32,49.94506043,,,,,,,,,,,,,,,,,,,,,,,,,,,,,,,,,54,2.219,1,0,34,34,6,1,6,×,9,6 × 9,incongruent,smallerFirst,2,1,54,,,,,,,,
,,,,,,,,,,,,,,,831,2022-01-12_18h41.14.712,multiplicationStroop,2021.2.3,Win32,49.94506043,,,,,,,,,,,,,,,,,,,,,,,,,,,,,,,,,16,1.8592,1,0,35,35,23,1,8,×,2,8 × 2,incongruent,largerFirst,1,2,16,,,,,,,,
,,,,,,,,,,,,,,,831,2022-01-12_18h41.14.712,multiplicationStroop,2021.2.3,Win32,49.94506043,,,,,,,,,,,,,,,,,,,,,,,,,,,,,,,,,,,,,,,,,,,,,,,,,,0,1,1,5,1,stimulusFile/mult_blk6_INcongruent.xlsx,,
,,,,,,,,,,,,,,,831,2022-01-12_18h41.14.712,multiplicationStroop,2021.2.3,Win32,49.94506043,,,,,,,,,,,,,,,,,,,,,,,,,,,,,,,space,1.9502,54,2.9681,1,0,0,0,21,1,9,×,6,9 × 6,neutral,largerFirst,1.5,1.5,54,,,,,,,,
,,,,,,,,,,,,,,,831,2022-01-12_18h41.14.712,multiplicationStroop,2021.2.3,Win32,49.94506043,,,,,,,,,,,,,,,,,,,,,,,,,,,,,,,,,64,2.1588,1,0,1,1,34,1,8,×,8,8 × 8,neutral,tie,1.5,1.5,64,,,,,,,,
,,,,,,,,,,,,,,,831,2022-01-12_18h41.14.712,multiplicationStroop,2021.2.3,Win32,49.94506043,,,,,,,,,,,,,,,,,,,,,,,,,,,,,,,,,45,1.8788,1,0,2,2,24,1,9,×,5,9 × 5,neutral,largerFirst,1.5,1.5,45,,,,,,,,
,,,,,,,,,,,,,,,831,2022-01-12_18h41.14.712,multiplicationStroop,2021.2.3,Win32,49.94506043,,,,,,,,,,,,,,,,,,,,,,,,,,,,,,,,,36,2.099,1,0,3,3,32,1,6,×,6,6 × 6,neutral,tie,1.5,1.5,36,,,,,,,,
,,,,,,,,,,,,,,,831,2022-01-12_18h41.14.712,multiplicationStroop,2021.2.3,Win32,49.94506043,,,,,,,,,,,,,,,,,,,,,,,,,,,,,,,,,24,1.659,1,0,4,4,16,1,6,×,4,6 × 4,neutral,largerFirst,1.5,1.5,24,,,,,,,,
,,,,,,,,,,,,,,,831,2022-01-12_18h41.14.712,multiplicationStroop,2021.2.3,Win32,49.94506043,,,,,,,,,,,,,,,,,,,,,,,,,,,,,,,,,21,1.319,1,0,5,5,22,1,7,×,3,7 × 3,neutral,largerFirst,1.5,1.5,21,,,,,,,,
,,,,,,,,,,,,,,,831,2022-01-12_18h41.14.712,multiplicationStroop,2021.2.3,Win32,49.94506043,,,,,,,,,,,,,,,,,,,,,,,,,,,,,,,,,24,1.559,1,0,6,6,8,1,3,×,8,3 × 8,neutral,smallerFirst,1.5,1.5,24,,,,,,,,
,,,,,,,,,,,,,,,831,2022-01-12_18h41.14.712,multiplicationStroop,2021.2.3,Win32,49.94506043,,,,,,,,,,,,,,,,,,,,,,,,,,,,,,,,,18,1.8589,1,0,7,7,4,1,2,×,9,2 × 9,neutral,smallerFirst,1.5,1.5,18,,,,,,,,
,,,,,,,,,,,,,,,831,2022-01-12_18h41.14.712,multiplicationStroop,2021.2.3,Win32,49.94506043,,,,,,,,,,,,,,,,,,,,,,,,,,,,,,,,,36,1.7191,1,0,8,8,13,1,4,×,9,4 × 9,neutral,smallerFirst,1.5,1.5,36,,,,,,,,
,,,,,,,,,,,,,,,831,2022-01-12_18h41.14.712,multiplicationStroop,2021.2.3,Win32,49.94506043,,,,,,,,,,,,,,,,,,,,,,,,,,,,,,,,,15,1.739,1,0,9,9,19,1,5,×,3,5 × 3,neutral,largerFirst,1.5,1.5,15,,,,,,,,
,,,,,,,,,,,,,,,831,2022-01-12_18h41.14.712,multiplicationStroop,2021.2.3,Win32,49.94506043,,,,,,,,,,,,,,,,,,,,,,,,,,,,,,,,,63,2.1588,1,0,10,10,26,1,9,×,7,9 × 7,neutral,largerFirst,1.5,1.5,63,,,,,,,,
,,,,,,,,,,,,,,,831,2022-01-12_18h41.14.712,multiplicationStroop,2021.2.3,Win32,49.94506043,,,,,,,,,,,,,,,,,,,,,,,,,,,,,,,,,56,1.5991,1,0,11,11,23,1,8,×,7,8 × 7,neutral,largerFirst,1.5,1.5,56,,,,,,,,
,,,,,,,,,,,,,,,831,2022-01-12_18h41.14.712,multiplicationStroop,2021.2.3,Win32,49.94506043,,,,,,,,,,,,,,,,,,,,,,,,,,,,,,,,,42,1.8988,1,0,12,12,20,1,7,×,6,7 × 6,neutral,largerFirst,1.5,1.5,42,,,,,,,,
,,,,,,,,,,,,,,,831,2022-01-12_18h41.14.712,multiplicationStroop,2021.2.3,Win32,49.94506043,,,,,,,,,,,,,,,,,,,,,,,,,,,,,,,,,12,1.3991,1,0,13,13,11,1,2,×,6,2 × 6,neutral,smallerFirst,1.5,1.5,12,,,,,,,,
,,,,,,,,,,,,,,,831,2022-01-12_18h41.14.712,multiplicationStroop,2021.2.3,Win32,49.94506043,,,,,,,,,,,,,,,,,,,,,,,,,,,,,,,,,49,2.5984,1,0,14,14,33,1,7,×,7,7 × 7,neutral,tie,1.5,1.5,49,,,,,,,,
,,,,,,,,,,,,,,,831,2022-01-12_18h41.14.712,multiplicationStroop,2021.2.3,Win32,49.94506043,,,,,,,,,,,,,,,,,,,,,,,,,,,,,,,,,30,1.659,1,0,15,15,5,1,5,×,6,5 × 6,neutral,smallerFirst,1.5,1.5,30,,,,,,,,
,,,,,,,,,,,,,,,831,2022-01-12_18h41.14.712,multiplicationStroop,2021.2.3,Win32,49.94506043,,,,,,,,,,,,,,,,,,,,,,,,,,,,,,,,,16,1.939,1,0,16,16,30,1,4,×,4,4 × 4,neutral,tie,1.5,1.5,16,,,,,,,,
,,,,,,,,,,,,,,,831,2022-01-12_18h41.14.712,multiplicationStroop,2021.2.3,Win32,49.94506043,,,,,,,,,,,,,,,,,,,,,,,,,,,,,,,,,28,2.2789,1,0,17,17,3,1,4,×,7,4 × 7,neutral,smallerFirst,1.5,1.5,28,,,,,,,,
,,,,,,,,,,,,,,,831,2022-01-12_18h41.14.712,multiplicationStroop,2021.2.3,Win32,49.94506043,,,,,,,,,,,,,,,,,,,,,,,,,,,,,,,,,14,1.6989,1,0,18,18,2,1,2,×,7,2 × 7,neutral,smallerFirst,1.5,1.5,14,,,,,,,,
,,,,,,,,,,,,,,,831,2022-01-12_18h41.14.712,multiplicationStroop,2021.2.3,Win32,49.94506043,,,,,,,,,,,,,,,,,,,,,,,,,,,,,,,,,25,2.0031,1,0,19,19,31,1,5,×,5,5 × 5,neutral,tie,1.5,1.5,25,,,,,,,,
,,,,,,,,,,,,,,,831,2022-01-12_18h41.14.712,multiplicationStroop,2021.2.3,Win32,49.94506043,,,,,,,,,,,,,,,,,,,,,,,,,,,,,,,,,18,2.015,1,0,20,20,14,1,6,×,3,6 × 3,neutral,largerFirst,1.5,1.5,18,,,,,,,,
,,,,,,,,,,,,,,,831,2022-01-12_18h41.14.712,multiplicationStroop,2021.2.3,Win32,49.94506043,,,,,,,,,,,,,,,,,,,,,,,,,,,,,,,,,32,1.6792,1,0,21,21,9,1,4,×,8,4 × 8,neutral,smallerFirst,1.5,1.5,32,,,,,,,,
,,,,,,,,,,,,,,,831,2022-01-12_18h41.14.712,multiplicationStroop,2021.2.3,Win32,49.94506043,,,,,,,,,,,,,,,,,,,,,,,,,,,,,,,,,72,2.7788,1,0,22,22,25,1,9,×,8,9 × 8,neutral,largerFirst,1.5,1.5,72,,,,,,,,
,,,,,,,,,,,,,,,831,2022-01-12_18h41.14.712,multiplicationStroop,2021.2.3,Win32,49.94506043,,,,,,,,,,,,,,,,,,,,,,,,,,,,,,,,,12,1.3189,1,0,23,23,7,1,3,×,4,3 × 4,neutral,smallerFirst,1.5,1.5,12,,,,,,,,
,,,,,,,,,,,,,,,831,2022-01-12_18h41.14.712,multiplicationStroop,2021.2.3,Win32,49.94506043,,,,,,,,,,,,,,,,,,,,,,,,,,,,,,,,,10,1.5191,1,0,24,24,18,1,5,×,2,5 × 2,neutral,largerFirst,1.5,1.5,10,,,,,,,,
,,,,,,,,,,,,,,,831,2022-01-12_18h41.14.712,multiplicationStroop,2021.2.3,Win32,49.94506043,,,,,,,,,,,,,,,,,,,,,,,,,,,,,,,,,35,1.8192,1,0,25,25,15,1,7,×,5,7 × 5,neutral,largerFirst,1.5,1.5,35,,,,,,,,
,,,,,,,,,,,,,,,831,2022-01-12_18h41.14.712,multiplicationStroop,2021.2.3,Win32,49.94506043,,,,,,,,,,,,,,,,,,,,,,,,,,,,,,,,,9,1.4991,1,0,26,26,29,1,3,×,3,3 × 3,neutral,tie,1.5,1.5,9,,,,,,,,
,,,,,,,,,,,,,,,831,2022-01-12_18h41.14.712,multiplicationStroop,2021.2.3,Win32,49.94506043,,,,,,,,,,,,,,,,,,,,,,,,,,,,,,,,,8,1.5191,1,0,27,27,17,1,4,×,2,4 × 2,neutral,largerFirst,1.5,1.5,8,,,,,,,,
,,,,,,,,,,,,,,,831,2022-01-12_18h41.14.712,multiplicationStroop,2021.2.3,Win32,49.94506043,,,,,,,,,,,,,,,,,,,,,,,,,,,,,,,,,81,2.5989,1,0,28,28,35,1,9,×,9,9 × 9,neutral,tie,1.5,1.5,81,,,,,,,,
,,,,,,,,,,,,,,,831,2022-01-12_18h41.14.712,multiplicationStroop,2021.2.3,Win32,49.94506043,,,,,,,,,,,,,,,,,,,,,,,,,,,,,,,,,20,1.7189,1,0,29,29,6,1,4,×,5,4 × 5,neutral,smallerFirst,1.5,1.5,20,,,,,,,,
,,,,,,,,,,,,,,,831,2022-01-12_18h41.14.712,multiplicationStroop,2021.2.3,Win32,49.94506043,,,,,,,,,,,,,,,,,,,,,,,,,,,,,,,,,27,1.819,1,0,30,30,0,1,3,×,9,3 × 9,neutral,smallerFirst,1.5,1.5,27,,,,,,,,
,,,,,,,,,,,,,,,831,2022-01-12_18h41.14.712,multiplicationStroop,2021.2.3,Win32,49.94506043,,,,,,,,,,,,,,,,,,,,,,,,,,,,,,,,,48,2.1588,1,0,31,31,1,1,6,×,8,6 × 8,neutral,smallerFirst,1.5,1.5,48,,,,,,,,
,,,,,,,,,,,,,,,831,2022-01-12_18h41.14.712,multiplicationStroop,2021.2.3,Win32,49.94506043,,,,,,,,,,,,,,,,,,,,,,,,,,,,,,,,,4,1.2992,1,0,32,32,28,1,2,×,2,2 × 2,neutral,tie,1.5,1.5,4,,,,,,,,
,,,,,,,,,,,,,,,831,2022-01-12_18h41.14.712,multiplicationStroop,2021.2.3,Win32,49.94506043,,,,,,,,,,,,,,,,,,,,,,,,,,,,,,,,,6,1.5988,1,0,33,33,12,1,2,×,3,2 × 3,neutral,smallerFirst,1.5,1.5,6,,,,,,,,
,,,,,,,,,,,,,,,831,2022-01-12_18h41.14.712,multiplicationStroop,2021.2.3,Win32,49.94506043,,,,,,,,,,,,,,,,,,,,,,,,,,,,,,,,,40,1.939,1,0,34,34,10,1,5,×,8,5 × 8,neutral,smallerFirst,1.5,1.5,40,,,,,,,,
,,,,,,,,,,,,,,,831,2022-01-12_18h41.14.712,multiplicationStroop,2021.2.3,Win32,49.94506043,,,,,,,,,,,,,,,,,,,,,,,,,,,,,,,,,16,1.5789,1,0,35,35,27,1,8,×,2,8 × 2,neutral,largerFirst,1.5,1.5,16,,,,,,,,
,,,,,,,,,,,,,,,831,2022-01-12_18h41.14.712,multiplicationStroop,2021.2.3,Win32,49.94506043,,,,,,,,,,,,,,,,,,,,,,,,,,,,,,,,,,,,,,,,,,,,,,,,,,0,2,2,0,1,stimulusFile/mult_blk1.xlsx,,
,,,,,,,,,,,,,,,831,2022-01-12_18h41.14.712,multiplicationStroop,2021.2.3,Win32,49.94506043,,,,,,,,,,,,,,,,,,,,,,,,,,,,,,,space,24.2372,6,1.5373,1,0,0,0,26,1,3,×,2,3 × 2,neutral,largerFirst,1.5,1.5,6,,,,,,,,
,,,,,,,,,,,,,,,831,2022-01-12_18h41.14.712,multiplicationStroop,2021.2.3,Win32,49.94506043,,,,,,,,,,,,,,,,,,,,,,,,,,,,,,,,,18,1.6191,1,0,1,1,18,1,9,×,2,9 × 2,neutral,largerFirst,1.5,1.5,18,,,,,,,,
,,,,,,,,,,,,,,,831,2022-01-12_18h41.14.712,multiplicationStroop,2021.2.3,Win32,49.94506043,,,,,,,,,,,,,,,,,,,,,,,,,,,,,,,,,14,1.2791,1,0,2,2,16,1,7,×,2,7 × 2,neutral,largerFirst,1.5,1.5,14,,,,,,,,
,,,,,,,,,,,,,,,831,2022-01-12_18h41.14.712,multiplicationStroop,2021.2.3,Win32,49.94506043,,,,,,,,,,,,,,,,,,,,,,,,,,,,,,,,,72,2.3393,1,0,3,3,11,1,8,×,9,8 × 9,neutral,smallerFirst,1.5,1.5,72,,,,,,,,
,,,,,,,,,,,,,,,831,2022-01-12_18h41.14.712,multiplicationStroop,2021.2.3,Win32,49.94506043,,,,,,,,,,,,,,,,,,,,,,,,,,,,,,,,,48,2.6791,1,0,4,4,15,1,8,×,6,8 × 6,neutral,largerFirst,1.5,1.5,48,,,,,,,,
,,,,,,,,,,,,,,,831,2022-01-12_18h41.14.712,multiplicationStroop,2021.2.3,Win32,49.94506043,,,,,,,,,,,,,,,,,,,,,,,,,,,,,,,,,9,1.3792,1,0,5,5,29,1,3,×,3,3 × 3,neutral,tie,1.5,1.5,9,,,,,,,,
,,,,,,,,,,,,,,,831,2022-01-12_18h41.14.712,multiplicationStroop,2021.2.3,Win32,49.94506043,,,,,,,,,,,,,,,,,,,,,,,,,,,,,,,,,12,1.2991,1,0,6,6,21,1,4,×,3,4 × 3,neutral,largerFirst,1.5,1.5,12,,,,,,,,
,,,,,,,,,,,,,,,831,2022-01-12_18h41.14.712,multiplicationStroop,2021.2.3,Win32,49.94506043,,,,,,,,,,,,,,,,,,,,,,,,,,,,,,,,,63,2.0791,1,0,7,7,12,1,7,×,9,7 × 9,neutral,smallerFirst,1.5,1.5,63,,,,,,,,
,,,,,,,,,,,,,,,831,2022-01-12_18h41.14.712,multiplicationStroop,2021.2.3,Win32,49.94506043,,,,,,,,,,,,,,,,,,,,,,,,,,,,,,,,,25,1.7591,1,0,8,8,31,1,5,×,5,5 × 5,neutral,tie,1.5,1.5,25,,,,,,,,
,,,,,,,,,,,,,,,831,2022-01-12_18h41.14.712,multiplicationStroop,2021.2.3,Win32,49.94506043,,,,,,,,,,,,,,,,,,,,,,,,,,,,,,,,,16,1.5594,1,0,9,9,13,1,2,×,8,2 × 8,neutral,smallerFirst,1.5,1.5,16,,,,,,,,
,,,,,,,,,,,,,,,831,2022-01-12_18h41.14.712,multiplicationStroop,2021.2.3,Win32,49.94506043,,,,,,,,,,,,,,,,,,,,,,,,,,,,,,,,,24,1.6788,1,0,10,10,22,1,8,×,3,8 × 3,neutral,largerFirst,1.5,1.5,24,,,,,,,,
,,,,,,,,,,,,,,,831,2022-01-12_18h41.14.712,multiplicationStroop,2021.2.3,Win32,49.94506043,,,,,,,,,,,,,,,,,,,,,,,,,,,,,,,,,10,1.5591,1,0,11,11,4,1,2,×,5,2 × 5,neutral,smallerFirst,1.5,1.5,10,,,,,,,,
,,,,,,,,,,,,,,,831,2022-01-12_18h41.14.712,multiplicationStroop,2021.2.3,Win32,49.94506043,,,,,,,,,,,,,,,,,,,,,,,,,,,,,,,,,8,1.7193,1,0,12,12,3,1,2,×,4,2 × 4,neutral,smallerFirst,1.5,1.5,8,,,,,,,,
,,,,,,,,,,,,,,,831,2022-01-12_18h41.14.712,multiplicationStroop,2021.2.3,Win32,49.94506043,,,,,,,,,,,,,,,,,,,,,,,,,,,,,,,,,24,1.5392,1,0,13,13,2,1,4,×,6,4 × 6,neutral,smallerFirst,1.5,1.5,24,,,,,,,,
,,,,,,,,,,,,,,,831,2022-01-12_18h41.14.712,multiplicationStroop,2021.2.3,Win32,49.94506043,,,,,,,,,,,,,,,,,,,,,,,,,,,,,,,,,36,1.959,1,0,14,14,32,1,6,×,6,6 × 6,neutral,tie,1.5,1.5,36,,,,,,,,
,,,,,,,,,,,,,,,831,2022-01-12_18h41.14.712,multiplicationStroop,2021.2.3,Win32,49.94506043,,,,,,,,,,,,,,,,,,,,,,,,,,,,,,,,,4,1.2392,1,0,15,15,28,1,2,×,2,2 × 2,neutral,tie,1.5,1.5,4,,,,,,,,
,,,,,,,,,,,,,,,831,2022-01-12_18h41.14.712,multiplicationStroop,2021.2.3,Win32,49.94506043,,,,,,,,,,,,,,,,,,,,,,,,,,,,,,,,,54,2.7191,1,0,16,16,7,1,6,×,9,6 × 9,neutral,smallerFirst,1.5,1.5,54,,,,,,,,
,,,,,,,,,,,,,,,831,2022-01-12_18h41.14.712,multiplicationStroop,2021.2.3,Win32,49.94506043,,,,,,,,,,,,,,,,,,,,,,,,,,,,,,,,,40,1.9392,1,0,17,17,24,1,8,×,5,8 × 5,neutral,largerFirst,1.5,1.5,40,,,,,,,,
,,,,,,,,,,,,,,,831,2022-01-12_18h41.14.712,multiplicationStroop,2021.2.3,Win32,49.94506043,,,,,,,,,,,,,,,,,,,,,,,,,,,,,,,,,35,1.6793,1,0,18,18,1,1,5,×,7,5 × 7,neutral,smallerFirst,1.5,1.5,35,,,,,,,,
,,,,,,,,,,,,,,,831,2022-01-12_18h41.14.712,multiplicationStroop,2021.2.3,Win32,49.94506043,,,,,,,,,,,,,,,,,,,,,,,,,,,,,,,,,45,1.7189,1,0,19,19,10,1,5,×,9,5 × 9,neutral,smallerFirst,1.5,1.5,45,,,,,,,,
,,,,,,,,,,,,,,,831,2022-01-12_18h41.14.712,multiplicationStroop,2021.2.3,Win32,49.94506043,,,,,,,,,,,,,,,,,,,,,,,,,,,,,,,,,27,4.0588,1,0,20,20,14,1,9,×,3,9 × 3,neutral,largerFirst,1.5,1.5,27,,,,,,,,
,,,,,,,,,,,,,,,831,2022-01-12_18h41.14.712,multiplicationStroop,2021.2.3,Win32,49.94506043,,,,,,,,,,,,,,,,,,,,,,,,,,,,,,,,,16,1.6696,1,0,21,21,30,1,4,×,4,4 × 4,neutral,tie,1.5,1.5,16,,,,,,,,
,,,,,,,,,,,,,,,831,2022-01-12_18h41.14.712,multiplicationStroop,2021.2.3,Win32,49.94506043,,,,,,,,,,,,,,,,,,,,,,,,,,,,,,,,,64,2.3991,1,0,22,22,34,1,8,×,8,8 × 8,neutral,tie,1.5,1.5,64,,,,,,,,
,,,,,,,,,,,,,,,831,2022-01-12_18h41.14.712,multiplicationStroop,2021.2.3,Win32,49.94506043,,,,,,,,,,,,,,,,,,,,,,,,,,,,,,,,,30,1.9592,1,0,23,23,19,1,6,×,5,6 × 5,neutral,largerFirst,1.5,1.5,30,,,,,,,,
,,,,,,,,,,,,,,,831,2022-01-12_18h41.14.712,multiplicationStroop,2021.2.3,Win32,49.94506043,,,,,,,,,,,,,,,,,,,,,,,,,,,,,,,,,15,1.4591,1,0,24,24,5,1,3,×,5,3 × 5,neutral,smallerFirst,1.5,1.5,15,,,,,,,,
,,,,,,,,,,,,,,,831,2022-01-12_18h41.14.712,multiplicationStroop,2021.2.3,Win32,49.94506043,,,,,,,,,,,,,,,,,,,,,,,,,,,,,,,,,20,1.8193,1,0,25,25,20,1,5,×,4,5 × 4,neutral,largerFirst,1.5,1.5,20,,,,,,,,
,,,,,,,,,,,,,,,831,2022-01-12_18h41.14.712,multiplicationStroop,2021.2.3,Win32,49.94506043,,,,,,,,,,,,,,,,,,,,,,,,,,,,,,,,,28,2.1591,1,0,26,26,17,1,7,×,4,7 × 4,neutral,largerFirst,1.5,1.5,28,,,,,,,,
,,,,,,,,,,,,,,,831,2022-01-12_18h41.14.712,multiplicationStroop,2021.2.3,Win32,49.94506043,,,,,,,,,,,,,,,,,,,,,,,,,,,,,,,,,81,4.0387,1,0,27,27,35,1,9,×,9,9 × 9,neutral,tie,1.5,1.5,81,,,,,,,,
,,,,,,,,,,,,,,,831,2022-01-12_18h41.14.712,multiplicationStroop,2021.2.3,Win32,49.94506043,,,,,,,,,,,,,,,,,,,,,,,,,,,,,,,,,18,2.2484,1,0,28,28,0,1,3,×,6,3 × 6,neutral,smallerFirst,1.5,1.5,18,,,,,,,,
,,,,,,,,,,,,,,,831,2022-01-12_18h41.14.712,multiplicationStroop,2021.2.3,Win32,49.94506043,,,,,,,,,,,,,,,,,,,,,,,,,,,,,,,,,12,1.4191,1,0,29,29,25,1,6,×,2,6 × 2,neutral,largerFirst,1.5,1.5,12,,,,,,,,
,,,,,,,,,,,,,,,831,2022-01-12_18h41.14.712,multiplicationStroop,2021.2.3,Win32,49.94506043,,,,,,,,,,,,,,,,,,,,,,,,,,,,,,,,,36,1.7992,1,0,30,30,27,1,9,×,4,9 × 4,neutral,largerFirst,1.5,1.5,36,,,,,,,,
,,,,,,,,,,,,,,,831,2022-01-12_18h41.14.712,multiplicationStroop,2021.2.3,Win32,49.94506043,,,,,,,,,,,,,,,,,,,,,,,,,,,,,,,,,21,1.3392,1,0,31,31,8,1,3,×,7,3 × 7,neutral,smallerFirst,1.5,1.5,21,,,,,,,,
,,,,,,,,,,,,,,,831,2022-01-12_18h41.14.712,multiplicationStroop,2021.2.3,Win32,49.94506043,,,,,,,,,,,,,,,,,,,,,,,,,,,,,,,,,32,1.4792,1,0,32,32,23,1,8,×,4,8 × 4,neutral,largerFirst,1.5,1.5,32,,,,,,,,
,,,,,,,,,,,,,,,831,2022-01-12_18h41.14.712,multiplicationStroop,2021.2.3,Win32,49.94506043,,,,,,,,,,,,,,,,,,,,,,,,,,,,,,,,,42,2.1188,1,0,33,33,6,1,6,×,7,6 × 7,neutral,smallerFirst,1.5,1.5,42,,,,,,,,
,,,,,,,,,,,,,,,831,2022-01-12_18h41.14.712,multiplicationStroop,2021.2.3,Win32,49.94506043,,,,,,,,,,,,,,,,,,,,,,,,,,,,,,,,,56,1.7791,1,0,34,34,9,1,7,×,8,7 × 8,neutral,smallerFirst,1.5,1.5,56,,,,,,,,
,,,,,,,,,,,,,,,831,2022-01-12_18h41.14.712,multiplicationStroop,2021.2.3,Win32,49.94506043,,,,,,,,,,,,,,,,,,,,,,,,,,,,,,,,,49,2.0792,1,0,35,35,33,1,7,×,7,7 × 7,neutral,tie,1.5,1.5,49,,,,,,,,
,,,,,,,,,,,,,,,831,2022-01-12_18h41.14.712,multiplicationStroop,2021.2.3,Win32,49.94506043,,,,,,,,,,,,,,,,,,,,,,,,,,,,,,,,,,,,,,,,,,,,,,,,,,0,3,3,1,1,stimulusFile/mult_blk2.xlsx,,
,,,,,,,,,,,,,,,831,2022-01-12_18h41.14.712,multiplicationStroop,2021.2.3,Win32,49.94506043,,,,,,,,,,,,,,,,,,,,,,,,,,,,,,,space,1.082,54,2.6059,1,0,0,0,26,1,9,×,6,9 × 6,congruent,largerFirst,2,1,54,,,,,,,,
,,,,,,,,,,,,,,,831,2022-01-12_18h41.14.712,multiplicationStroop,2021.2.3,Win32,49.94506043,,,,,,,,,,,,,,,,,,,,,,,,,,,,,,,,,12,1.2989,1,0,1,1,5,1,2,×,6,2 × 6,congruent,smallerFirst,1,2,12,,,,,,,,
,,,,,,,,,,,,,,,831,2022-01-12_18h41.14.712,multiplicationStroop,2021.2.3,Win32,49.94506043,,,,,,,,,,,,,,,,,,,,,,,,,,,,,,,,,72,1.939,1,0,2,2,3,1,8,×,9,8 × 9,congruent,smallerFirst,1,2,72,,,,,,,,
,,,,,,,,,,,,,,,831,2022-01-12_18h41.14.712,multiplicationStroop,2021.2.3,Win32,49.94506043,,,,,,,,,,,,,,,,,,,,,,,,,,,,,,,,,32,1.4392,1,0,3,3,6,1,4,×,8,4 × 8,congruent,smallerFirst,1,2,32,,,,,,,,
,,,,,,,,,,,,,,,831,2022-01-12_18h41.14.712,multiplicationStroop,2021.2.3,Win32,49.94506043,,,,,,,,,,,,,,,,,,,,,,,,,,,,,,,,,30,1.7389,1,0,4,4,1,1,5,×,6,5 × 6,congruent,smallerFirst,1,2,30,,,,,,,,
,,,,,,,,,,,,,,,831,2022-01-12_18h41.14.712,multiplicationStroop,2021.2.3,Win32,49.94506043,,,,,,,,,,,,,,,,,,,,,,,,,,,,,,,,,20,1.7991,1,0,5,5,21,1,5,×,4,5 × 4,congruent,largerFirst,2,1,20,,,,,,,,
,,,,,,,,,,,,,,,831,2022-01-12_18h41.14.712,multiplicationStroop,2021.2.3,Win32,49.94506043,,,,,,,,,,,,,,,,,,,,,,,,,,,,,,,,,16,1.5789,1,0,6,6,19,1,8,×,2,8 × 2,congruent,largerFirst,2,1,16,,,,,,,,
,,,,,,,,,,,,,,,831,2022-01-12_18h41.14.712,multiplicationStroop,2021.2.3,Win32,49.94506043,,,,,,,,,,,,,,,,,,,,,,,,,,,,,,,,,25,1.819,1,0,7,7,31,1,5,×,5,5 × 5,neutral,tie,1,2,25,,,,,,,,
,,,,,,,,,,,,,,,831,2022-01-12_18h41.14.712,multiplicationStroop,2021.2.3,Win32,49.94506043,,,,,,,,,,,,,,,,,,,,,,,,,,,,,,,,,63,1.9791,1,0,8,8,7,1,7,×,9,7 × 9,congruent,smallerFirst,1,2,63,,,,,,,,
,,,,,,,,,,,,,,,831,2022-01-12_18h41.14.712,multiplicationStroop,2021.2.3,Win32,49.94506043,,,,,,,,,,,,,,,,,,,,,,,,,,,,,,,,,18,1.8389,1,0,9,9,25,1,6,×,3,6 × 3,congruent,largerFirst,2,1,18,,,,,,,,
,,,,,,,,,,,,,,,831,2022-01-12_18h41.14.712,multiplicationStroop,2021.2.3,Win32,49.94506043,,,,,,,,,,,,,,,,,,,,,,,,,,,,,,,,,35,1.8588,1,0,10,10,15,1,7,×,5,7 × 5,congruent,largerFirst,2,1,35,,,,,,,,
,,,,,,,,,,,,,,,831,2022-01-12_18h41.14.712,multiplicationStroop,2021.2.3,Win32,49.94506043,,,,,,,,,,,,,,,,,,,,,,,,,,,,,,,,,15,1.579,1,0,11,11,18,1,5,×,3,5 × 3,congruent,largerFirst,2,1,15,,,,,,,,
,,,,,,,,,,,,,,,831,2022-01-12_18h41.14.712,multiplicationStroop,2021.2.3,Win32,49.94506043,,,,,,,,,,,,,,,,,,,,,,,,,,,,,,,,,21,1.2792,1,0,12,12,2,1,3,×,7,3 × 7,congruent,smallerFirst,1,2,21,,,,,,,,
,,,,,,,,,,,,,,,831,2022-01-12_18h41.14.712,multiplicationStroop,2021.2.3,Win32,49.94506043,,,,,,,,,,,,,,,,,,,,,,,,,,,,,,,,,24,1.6189,1,0,13,13,24,1,8,×,3,8 × 3,congruent,largerFirst,2,1,24,,,,,,,,
,,,,,,,,,,,,,,,831,2022-01-12_18h41.14.712,multiplicationStroop,2021.2.3,Win32,49.94506043,,,,,,,,,,,,,,,,,,,,,,,,,,,,,,,,,24,1.7989,1,0,14,14,11,1,4,×,6,4 × 6,congruent,smallerFirst,1,2,24,,,,,,,,
,,,,,,,,,,,,,,,831,2022-01-12_18h41.14.712,multiplicationStroop,2021.2.3,Win32,49.94506043,,,,,,,,,,,,,,,,,,,,,,,,,,,,,,,,,49,2.1188,1,0,15,15,33,1,7,×,7,7 × 7,neutral,tie,1,2,49,,,,,,,,
,,,,,,,,,,,,,,,831,2022-01-12_18h41.14.712,multiplicationStroop,2021.2.3,Win32,49.94506043,,,,,,,,,,,,,,,,,,,,,,,,,,,,,,,,,14,1.6791,1,0,16,16,0,1,2,×,7,2 × 7,congruent,smallerFirst,1,2,14,,,,,,,,
,,,,,,,,,,,,,,,831,2022-01-12_18h41.14.712,multiplicationStroop,2021.2.3,Win32,49.94506043,,,,,,,,,,,,,,,,,,,,,,,,,,,,,,,,,48,1.8788,1,0,17,17,4,1,6,×,8,6 × 8,congruent,smallerFirst,1,2,48,,,,,,,,
,,,,,,,,,,,,,,,831,2022-01-12_18h41.14.712,multiplicationStroop,2021.2.3,Win32,49.94506043,,,,,,,,,,,,,,,,,,,,,,,,,,,,,,,,,42,2.5989,1,0,18,18,17,1,7,×,6,7 × 6,congruent,largerFirst,2,1,42,,,,,,,,
,,,,,,,,,,,,,,,831,2022-01-12_18h41.14.712,multiplicationStroop,2021.2.3,Win32,49.94506043,,,,,,,,,,,,,,,,,,,,,,,,,,,,,,,,,18,1.6388,1,0,19,19,8,1,2,×,9,2 × 9,congruent,smallerFirst,1,2,18,,,,,,,,
,,,,,,,,,,,,,,,831,2022-01-12_18h41.14.712,multiplicationStroop,2021.2.3,Win32,49.94506043,,,,,,,,,,,,,,,,,,,,,,,,,,,,,,,,,64,1.8992,1,0,20,20,34,1,8,×,8,8 × 8,neutral,tie,1,2,64,,,,,,,,
,,,,,,,,,,,,,,,831,2022-01-12_18h41.14.712,multiplicationStroop,2021.2.3,Win32,49.94506043,,,,,,,,,,,,,,,,,,,,,,,,,,,,,,,,,28,2.2587,1,0,21,21,13,1,4,×,7,4 × 7,congruent,smallerFirst,1,2,28,,,,,,,,
,,,,,,,,,,,,,,,831,2022-01-12_18h41.14.712,multiplicationStroop,2021.2.3,Win32,49.94506043,,,,,,,,,,,,,,,,,,,,,,,,,,,,,,,,,36,1.859,1,0,22,22,14,1,9,×,4,9 × 4,congruent,largerFirst,2,1,36,,,,,,,,
,,,,,,,,,,,,,,,831,2022-01-12_18h41.14.712,multiplicationStroop,2021.2.3,Win32,49.94506043,,,,,,,,,,,,,,,,,,,,,,,,,,,,,,,,,10,1.5991,1,0,23,23,10,1,2,×,5,2 × 5,congruent,smallerFirst,1,2,10,,,,,,,,
,,,,,,,,,,,,,,,831,2022-01-12_18h41.14.712,multiplicationStroop,2021.2.3,Win32,49.94506043,,,,,,,,,,,,,,,,,,,,,,,,,,,,,,,,,16,1.6391,1,0,24,24,30,1,4,×,4,4 × 4,neutral,tie,1,2,16,,,,,,,,
,,,,,,,,,,,,,,,831,2022-01-12_18h41.14.712,multiplicationStroop,2021.2.3,Win32,49.94506043,,,,,,,,,,,,,,,,,,,,,,,,,,,,,,,,,4,1.279,1,0,25,25,28,1,2,×,2,2 × 2,neutral,tie,1,2,4,,,,,,,,
,,,,,,,,,,,,,,,831,2022-01-12_18h41.14.712,multiplicationStroop,2021.2.3,Win32,49.94506043,,,,,,,,,,,,,,,,,,,,,,,,,,,,,,,,,12,1.339,1,0,26,26,16,1,4,×,3,4 × 3,congruent,largerFirst,2,1,12,,,,,,,,
,,,,,,,,,,,,,,,831,2022-01-12_18h41.14.712,multiplicationStroop,2021.2.3,Win32,49.94506043,,,,,,,,,,,,,,,,,,,,,,,,,,,,,,,,,27,2.4789,1,0,27,27,12,1,3,×,9,3 × 9,congruent,smallerFirst,1,2,27,,,,,,,,
,,,,,,,,,,,,,,,831,2022-01-12_18h41.14.712,multiplicationStroop,2021.2.3,Win32,49.94506043,,,,,,,,,,,,,,,,,,,,,,,,,,,,,,,,,36,3.8188,1,0,28,28,32,1,6,×,6,6 × 6,neutral,tie,1,2,36,,,,,,,,
,,,,,,,,,,,,,,,831,2022-01-12_18h41.14.712,multiplicationStroop,2021.2.3,Win32,49.94506043,,,,,,,,,,,,,,,,,,,,,,,,,,,,,,,,,56,1.9295,1,0,29,29,22,1,8,×,7,8 × 7,congruent,largerFirst,2,1,56,,,,,,,,
,,,,,,,,,,,,,,,831,2022-01-12_18h41.14.712,multiplicationStroop,2021.2.3,Win32,49.94506043,,,,,,,,,,,,,,,,,,,,,,,,,,,,,,,,,40,1.859,1,0,30,30,20,1,8,×,5,8 × 5,congruent,largerFirst,2,1,40,,,,,,,,
,,,,,,,,,,,,,,,831,2022-01-12_18h41.14.712,multiplicationStroop,2021.2.3,Win32,49.94506043,,,,,,,,,,,,,,,,,,,,,,,,,,,,,,,,,6,1.439,1,0,31,31,27,1,3,×,2,3 × 2,congruent,largerFirst,2,1,6,,,,,,,,
,,,,,,,,,,,,,,,831,2022-01-12_18h41.14.712,multiplicationStroop,2021.2.3,Win32,49.94506043,,,,,,,,,,,,,,,,,,,,,,,,,,,,,,,,,45,1.8189,1,0,32,32,9,1,5,×,9,5 × 9,congruent,smallerFirst,1,2,45,,,,,,,,
,,,,,,,,,,,,,,,831,2022-01-12_18h41.14.712,multiplicationStroop,2021.2.3,Win32,49.94506043,,,,,,,,,,,,,,,,,,,,,,,,,,,,,,,,,9,1.4791,1,0,33,33,29,1,3,×,3,3 × 3,neutral,tie,1,2,9,,,,,,,,
,,,,,,,,,,,,,,,831,2022-01-12_18h41.14.712,multiplicationStroop,2021.2.3,Win32,49.94506043,,,,,,,,,,,,,,,,,,,,,,,,,,,,,,,,,81,2.0988,1,0,34,34,35,1,9,×,9,9 × 9,neutral,tie,1,2,81,,,,,,,,
,,,,,,,,,,,,,,,831,2022-01-12_18h41.14.712,multiplicationStroop,2021.2.3,Win32,49.94506043,,,,,,,,,,,,,,,,,,,,,,,,,,,,,,,,,8,1.5191,1,0,35,35,23,1,4,×,2,4 × 2,congruent,largerFirst,2,1,8,,,,,,,,
,,,,,,,,,,,,,,,831,2022-01-12_18h41.14.712,multiplicationStroop,2021.2.3,Win32,49.94506043,,,,,,,,,,,,,,,,,,,,,,,,,,,,,,,,,,,,,,,,,,,,,,,,,,0,4,4,3,1,stimulusFile/mult_blk4_congruent.xlsx,,
,,,,,,,,,,,,,,,831,2022-01-12_18h41.14.712,multiplicationStroop,2021.2.3,Win32,49.94506043,,,,,,,,,,,,,,,,,,,,,,,,,,,,,,,space,1.1019,10,1.5632,1,0,0,0,24,1,5,×,2,5 × 2,congruent,largerFirst,2,1,10,,,,,,,,
,,,,,,,,,,,,,,,831,2022-01-12_18h41.14.712,multiplicationStroop,2021.2.3,Win32,49.94506043,,,,,,,,,,,,,,,,,,,,,,,,,,,,,,,,,63,4.0587,1,0,1,1,21,1,9,×,7,9 × 7,congruent,largerFirst,2,1,63,,,,,,,,
,,,,,,,,,,,,,,,831,2022-01-12_18h41.14.712,multiplicationStroop,2021.2.3,Win32,49.94506043,,,,,,,,,,,,,,,,,,,,,,,,,,,,,,,,,18,1.7096,1,0,2,2,11,1,3,×,6,3 × 6,congruent,smallerFirst,1,2,18,,,,,,,,
,,,,,,,,,,,,,,,831,2022-01-12_18h41.14.712,multiplicationStroop,2021.2.3,Win32,49.94506043,,,,,,,,,,,,,,,,,,,,,,,,,,,,,,,,,16,1.5393,1,0,3,3,5,1,2,×,8,2 × 8,congruent,smallerFirst,1,2,16,,,,,,,,
,,,,,,,,,,,,,,,831,2022-01-12_18h41.14.712,multiplicationStroop,2021.2.3,Win32,49.94506043,,,,,,,,,,,,,,,,,,,,,,,,,,,,,,,,,81,3.3189,1,0,4,4,35,1,9,×,9,9 × 9,neutral,tie,2,1,81,,,,,,,,
,,,,,,,,,,,,,,,831,2022-01-12_18h41.14.712,multiplicationStroop,2021.2.3,Win32,49.94506043,,,,,,,,,,,,,,,,,,,,,,,,,,,,,,,,,20,1.7192,1,0,5,5,7,1,4,×,5,4 × 5,congruent,smallerFirst,1,2,20,,,,,,,,
,,,,,,,,,,,,,,,831,2022-01-12_18h41.14.712,multiplicationStroop,2021.2.3,Win32,49.94506043,,,,,,,,,,,,,,,,,,,,,,,,,,,,,,,,,64,2.159,1,0,6,6,34,1,8,×,8,8 × 8,neutral,tie,2,1,64,,,,,,,,
,,,,,,,,,,,,,,,831,2022-01-12_18h41.14.712,multiplicationStroop,2021.2.3,Win32,49.94506043,,,,,,,,,,,,,,,,,,,,,,,,,,,,,,,,,24,1.6392,1,0,7,7,10,1,3,×,8,3 × 8,congruent,smallerFirst,1,2,24,,,,,,,,
,,,,,,,,,,,,,,,831,2022-01-12_18h41.14.712,multiplicationStroop,2021.2.3,Win32,49.94506043,,,,,,,,,,,,,,,,,,,,,,,,,,,,,,,,,24,2.179,1,0,8,8,25,1,6,×,4,6 × 4,congruent,largerFirst,2,1,24,,,,,,,,
,,,,,,,,,,,,,,,831,2022-01-12_18h41.14.712,multiplicationStroop,2021.2.3,Win32,49.94506043,,,,,,,,,,,,,,,,,,,,,,,,,,,,,,,,,35,1.9191,1,0,9,9,1,1,5,×,7,5 × 7,congruent,smallerFirst,1,2,35,,,,,,,,
,,,,,,,,,,,,,,,831,2022-01-12_18h41.14.712,multiplicationStroop,2021.2.3,Win32,49.94506043,,,,,,,,,,,,,,,,,,,,,,,,,,,,,,,,,36,1.7789,1,0,10,10,32,1,6,×,6,6 × 6,neutral,tie,2,1,36,,,,,,,,
,,,,,,,,,,,,,,,831,2022-01-12_18h41.14.712,multiplicationStroop,2021.2.3,Win32,49.94506043,,,,,,,,,,,,,,,,,,,,,,,,,,,,,,,,,30,1.6195,1,0,11,11,15,1,6,×,5,6 × 5,congruent,largerFirst,2,1,30,,,,,,,,
,,,,,,,,,,,,,,,831,2022-01-12_18h41.14.712,multiplicationStroop,2021.2.3,Win32,49.94506043,,,,,,,,,,,,,,,,,,,,,,,,,,,,,,,,,45,1.6592,1,0,12,12,23,1,9,×,5,9 × 5,congruent,largerFirst,2,1,45,,,,,,,,
,,,,,,,,,,,,,,,831,2022-01-12_18h41.14.712,multiplicationStroop,2021.2.3,Win32,49.94506043,,,,,,,,,,,,,,,,,,,,,,,,,,,,,,,,,16,1.6591,1,0,13,13,30,1,4,×,4,4 × 4,neutral,tie,2,1,16,,,,,,,,
,,,,,,,,,,,,,,,831,2022-01-12_18h41.14.712,multiplicationStroop,2021.2.3,Win32,49.94506043,,,,,,,,,,,,,,,,,,,,,,,,,,,,,,,,,21,1.4392,1,0,14,14,16,1,7,×,3,7 × 3,congruent,largerFirst,2,1,21,,,,,,,,
,,,,,,,,,,,,,,,831,2022-01-12_18h41.14.712,multiplicationStroop,2021.2.3,Win32,49.94506043,,,,,,,,,,,,,,,,,,,,,,,,,,,,,,,,,54,1.5193,1,0,15,15,12,1,6,×,9,6 × 9,congruent,smallerFirst,1,2,54,,,,,,,,
,,,,,,,,,,,,,,,831,2022-01-12_18h41.14.712,multiplicationStroop,2021.2.3,Win32,49.94506043,,,,,,,,,,,,,,,,,,,,,,,,,,,,,,,,,56,1.7393,1,0,16,16,8,1,7,×,8,7 × 8,congruent,smallerFirst,1,2,56,,,,,,,,
,,,,,,,,,,,,,,,831,2022-01-12_18h41.14.712,multiplicationStroop,2021.2.3,Win32,49.94506043,,,,,,,,,,,,,,,,,,,,,,,,,,,,,,,,,25,1.7392,1,0,17,17,31,1,5,×,5,5 × 5,neutral,tie,2,1,25,,,,,,,,
,,,,,,,,,,,,,,,831,2022-01-12_18h41.14.712,multiplicationStroop,2021.2.3,Win32,49.94506043,,,,,,,,,,,,,,,,,,,,,,,,,,,,,,,,,15,1.5991,1,0,18,18,4,1,3,×,5,3 × 5,congruent,smallerFirst,1,2,15,,,,,,,,
,,,,,,,,,,,,,,,831,2022-01-12_18h41.14.712,multiplicationStroop,2021.2.3,Win32,49.94506043,,,,,,,,,,,,,,,,,,,,,,,,,,,,,,,,,49,2.1392,1,0,19,19,33,1,7,×,7,7 × 7,neutral,tie,2,1,49,,,,,,,,
,,,,,,,,,,,,,,,831,2022-01-12_18h41.14.712,multiplicationStroop,2021.2.3,Win32,49.94506043,,,,,,,,,,,,,,,,,,,,,,,,,,,,,,,,,14,1.4792,1,0,20,20,14,1,7,×,2,7 × 2,congruent,largerFirst,2,1,14,,,,,,,,
,,,,,,,,,,,,,,,831,2022-01-12_18h41.14.712,multiplicationStroop,2021.2.3,Win32,49.94506043,,,,,,,,,,,,,,,,,,,,,,,,,,,,,,,,,18,2.3391,1,0,21,21,22,1,9,×,2,9 × 2,congruent,largerFirst,2,1,18,,,,,,,,
,,,,,,,,,,,,,,,831,2022-01-12_18h41.14.712,multiplicationStroop,2021.2.3,Win32,49.94506043,,,,,,,,,,,,,,,,,,,,,,,,,,,,,,,,,40,1.909,1,0,22,22,6,1,5,×,8,5 × 8,congruent,smallerFirst,1,2,40,,,,,,,,
,,,,,,,,,,,,,,,831,2022-01-12_18h41.14.712,multiplicationStroop,2021.2.3,Win32,49.94506043,,,,,,,,,,,,,,,,,,,,,,,,,,,,,,,,,6,1.4593,1,0,23,23,13,1,2,×,3,2 × 3,congruent,smallerFirst,1,2,6,,,,,,,,
,,,,,,,,,,,,,,,831,2022-01-12_18h41.14.712,multiplicationStroop,2021.2.3,Win32,49.94506043,,,,,,,,,,,,,,,,,,,,,,,,,,,,,,,,,32,1.4193,1,0,24,24,20,1,8,×,4,8 × 4,congruent,largerFirst,2,1,32,,,,,,,,
,,,,,,,,,,,,,,,831,2022-01-12_18h41.14.712,multiplicationStroop,2021.2.3,Win32,49.94506043,,,,,,,,,,,,,,,,,,,,,,,,,,,,,,,,,9,1.3992,1,0,25,25,29,1,3,×,3,3 × 3,neutral,tie,2,1,9,,,,,,,,
,,,,,,,,,,,,,,,831,2022-01-12_18h41.14.712,multiplicationStroop,2021.2.3,Win32,49.94506043,,,,,,,,,,,,,,,,,,,,,,,,,,,,,,,,,42,2.4592,1,0,26,26,3,1,6,×,7,6 × 7,congruent,smallerFirst,1,2,42,,,,,,,,
,,,,,,,,,,,,,,,831,2022-01-12_18h41.14.712,multiplicationStroop,2021.2.3,Win32,49.94506043,,,,,,,,,,,,,,,,,,,,,,,,,,,,,,,,,12,1.2192,1,0,27,27,2,1,3,×,4,3 × 4,congruent,smallerFirst,1,2,12,,,,,,,,
,,,,,,,,,,,,,,,831,2022-01-12_18h41.14.712,multiplicationStroop,2021.2.3,Win32,49.94506043,,,,,,,,,,,,,,,,,,,,,,,,,,,,,,,,,8,1.5191,1,0,28,28,9,1,2,×,4,2 × 4,congruent,smallerFirst,1,2,8,,,,,,,,
,,,,,,,,,,,,,,,831,2022-01-12_18h41.14.712,multiplicationStroop,2021.2.3,Win32,49.94506043,,,,,,,,,,,,,,,,,,,,,,,,,,,,,,,,,72,2.2992,1,0,29,29,17,1,9,×,8,9 × 8,congruent,largerFirst,2,1,72,,,,,,,,
,,,,,,,,,,,,,,,831,2022-01-12_18h41.14.712,multiplicationStroop,2021.2.3,Win32,49.94506043,,,,,,,,,,,,,,,,,,,,,,,,,,,,,,,,,12,1.3896,1,0,30,30,19,1,6,×,2,6 × 2,congruent,largerFirst,2,1,12,,,,,,,,
,,,,,,,,,,,,,,,831,2022-01-12_18h41.14.712,multiplicationStroop,2021.2.3,Win32,49.94506043,,,,,,,,,,,,,,,,,,,,,,,,,,,,,,,,,4,1.2792,1,0,31,31,28,1,2,×,2,2 × 2,neutral,tie,2,1,4,,,,,,,,
,,,,,,,,,,,,,,,831,2022-01-12_18h41.14.712,multiplicationStroop,2021.2.3,Win32,49.94506043,,,,,,,,,,,,,,,,,,,,,,,,,,,,,,,,,36,2.0792,1,0,32,32,0,1,4,×,9,4 × 9,congruent,smallerFirst,1,2,36,,,,,,,,
,,,,,,,,,,,,,,,831,2022-01-12_18h41.14.712,multiplicationStroop,2021.2.3,Win32,49.94506043,,,,,,,,,,,,,,,,,,,,,,,,,,,,,,,,,28,1.9593,1,0,33,33,27,1,7,×,4,7 × 4,congruent,largerFirst,2,1,28,,,,,,,,
,,,,,,,,,,,,,,,831,2022-01-12_18h41.14.712,multiplicationStroop,2021.2.3,Win32,49.94506043,,,,,,,,,,,,,,,,,,,,,,,,,,,,,,,,,27,1.8592,1,0,34,34,26,1,9,×,3,9 × 3,congruent,largerFirst,2,1,27,,,,,,,,
,,,,,,,,,,,,,,,831,2022-01-12_18h41.14.712,multiplicationStroop,2021.2.3,Win32,49.94506043,,,,,,,,,,,,,,,,,,,,,,,,,,,,,,,,,48,1.8991,1,0,35,35,18,1,8,×,6,8 × 6,congruent,largerFirst,2,1,48,,,,,,,,
,,,,,,,,,,,,,,,831,2022-01-12_18h41.14.712,multiplicationStroop,2021.2.3,Win32,49.94506043,,,,,,,,,,,,,,,,,,,,,,,,,,,,,,,,,,,,,,,,,,,,,,,,,,0,5,5,2,1,stimulusFile/mult_blk3_congruent.xlsx,,
,,,,,,,,,,,,,,,831,2022-01-12_18h41.14.712,multiplicationStroop,2021.2.3,Win32,49.94506043,,,,,,,,,,,,,,,,,,,,,,,,,,,,,,,,,,,,,,,,,,,,,,,,,,,,,,,,space,3.5789