welcomeKey_resp.keys,welcomeKey_resp.rt,X Scale,Y Scale,rt_resp_4.keys,rt_resp_4.corr,rt_resp_4.rt,speedtest_2.thisRepN,speedtest_2.thisTrialN,speedtest_2.thisN,speedtest_2.thisIndex,speedtest_2.ran,numberSc,posX,positionLayout,participant,date,expName,psychopyVersion,OS,frameRate,ct_instrresp.keys,ct_instrresp.rt,key_resp_2.keys,key_resp_2.rt,ct_keyResp.keys,ct_keyResp.corr,ct_keyResp.rt,trials.thisRepN,trials.thisTrialN,trials.thisN,trials.thisIndex,trials.ran,leftNo,rightNo,displayProblem,numDistance,leftNo_size,rightNo_size,Dims,keyAnswer,TS_Loop.thisRepN,TS_Loop.thisTrialN,TS_Loop.thisN,TS_Loop.thisIndex,TS_Loop.ran,Condition,ActionInst,instrImage,mltptaskInst_resp.keys,mltptaskInst_resp.rt,continue_resp_2.keys,continue_resp_2.rt,multp_Answer,multi_RT,multiplyCorr,LoopingMultiply.thisRepN,LoopingMultiply.thisTrialN,LoopingMultiply.thisN,LoopingMultiply.thisIndex,LoopingMultiply.ran,factor1,multiplySign,factor2,multliplyProblem,physicalSize,orderOperand,sizeF1,sizeF2,mult_answer,trials_stroop.thisRepN,trials_stroop.thisTrialN,trials_stroop.thisN,trials_stroop.thisIndex,trials_stroop.ran,multiplicationFile,esckey_resp_2.keys,esckey_resp_2.rt
y,5.4645,55.4,52,left,1,0.5477,0,0,0,4,1,6,-200,left,832,2022-01-13_11h32.29.331,multiplicationStroop,2021.2.3,Win32,60.12506013,,,,,,,,,,,,,,,,,,,,,,,,,,,,,,,,,,,,,,,,,,,,,,,,,,,,,,,,,
,,,,left,1,0.5033,0,1,1,2,1,3,-200,left,832,2022-01-13_11h32.29.331,multiplicationStroop,2021.2.3,Win32,60.12506013,,,,,,,,,,,,,,,,,,,,,,,,,,,,,,,,,,,,,,,,,,,,,,,,,,,,,,,,,
,,,,right,1,0.4166,0,2,2,11,1,4,200,right,832,2022-01-13_11h32.29.331,multiplicationStroop,2021.2.3,Win32,60.12506013,,,,,,,,,,,,,,,,,,,,,,,,,,,,,,,,,,,,,,,,,,,,,,,,,,,,,,,,,
,,,,right,1,0.5644,0,3,3,9,1,2,200,right,832,2022-01-13_11h32.29.331,multiplicationStroop,2021.2.3,Win32,60.12506013,,,,,,,,,,,,,,,,,,,,,,,,,,,,,,,,,,,,,,,,,,,,,,,,,,,,,,,,,
,,,,left,1,0.323,0,4,4,1,1,2,-200,left,832,2022-01-13_11h32.29.331,multiplicationStroop,2021.2.3,Win32,60.12506013,,,,,,,,,,,,,,,,,,,,,,,,,,,,,,,,,,,,,,,,,,,,,,,,,,,,,,,,,
,,,,right,1,0.3339,0,5,5,10,1,3,200,right,832,2022-01-13_11h32.29.331,multiplicationStroop,2021.2.3,Win32,60.12506013,,,,,,,,,,,,,,,,,,,,,,,,,,,,,,,,,,,,,,,,,,,,,,,,,,,,,,,,,
,,,,right,1,0.4185,0,6,6,14,1,8,200,right,832,2022-01-13_11h32.29.331,multiplicationStroop,2021.2.3,Win32,60.12506013,,,,,,,,,,,,,,,,,,,,,,,,,,,,,,,,,,,,,,,,,,,,,,,,,,,,,,,,,
,,,,right,1,0.3983,0,7,7,8,1,1,200,right,832,2022-01-13_11h32.29.331,multiplicationStroop,2021.2.3,Win32,60.12506013,,,,,,,,,,,,,,,,,,,,,,,,,,,,,,,,,,,,,,,,,,,,,,,,,,,,,,,,,
,,,,right,1,0.3573,0,8,8,15,1,9,200,right,832,2022-01-13_11h32.29.331,multiplicationStroop,2021.2.3,Win32,60.12506013,,,,,,,,,,,,,,,,,,,,,,,,,,,,,,,,,,,,,,,,,,,,,,,,,,,,,,,,,
,,,,right,1,0.3375,0,9,9,13,1,7,200,right,832,2022-01-13_11h32.29.331,multiplicationStroop,2021.2.3,Win32,60.12506013,,,,,,,,,,,,,,,,,,,,,,,,,,,,,,,,,,,,,,,,,,,,,,,,,,,,,,,,,
,,,,left,1,0.4152,0,10,10,7,1,9,-200,left,832,2022-01-13_11h32.29.331,multiplicationStroop,2021.2.3,Win32,60.12506013,,,,,,,,,,,,,,,,,,,,,,,,,,,,,,,,,,,,,,,,,,,,,,,,,,,,,,,,,
,,,,left,1,0.5034,0,11,11,5,1,7,-200,left,832,2022-01-13_11h32.29.331,multiplicationStroop,2021.2.3,Win32,60.12506013,,,,,,,,,,,,,,,,,,,,,,,,,,,,,,,,,,,,,,,,,,,,,,,,,,,,,,,,,
,,,,left,1,0.3168,0,12,12,0,1,1,-200,left,832,2022-01-13_11h32.29.331,multiplicationStroop,2021.2.3,Win32,60.12506013,,,,,,,,,,,,,,,,,,,,,,,,,,,,,,,,,,,,,,,,,,,,,,,,,,,,,,,,,
,,,,right,1,0.4016,0,13,13,12,1,6,200,right,832,2022-01-13_11h32.29.331,multiplicationStroop,2021.2.3,Win32,60.12506013,,,,,,,,,,,,,,,,,,,,,,,,,,,,,,,,,,,,,,,,,,,,,,,,,,,,,,,,,
,,,,left,1,0.3328,0,14,14,3,1,4,-200,left,832,2022-01-13_11h32.29.331,multiplicationStroop,2021.2.3,Win32,60.12506013,,,,,,,,,,,,,,,,,,,,,,,,,,,,,,,,,,,,,,,,,,,,,,,,,,,,,,,,,
,,,,left,1,0.4022,0,15,15,6,1,8,-200,left,832,2022-01-13_11h32.29.331,multiplicationStroop,2021.2.3,Win32,60.12506013,,,,,,,,,,,,,,,,,,,,,,,,,,,,,,,,,,,,,,,,,,,,,,,,,,,,,,,,,
,,,,right,1,0.3416,1,0,16,11,1,4,200,right,832,2022-01-13_11h32.29.331,multiplicationStroop,2021.2.3,Win32,60.12506013,,,,,,,,,,,,,,,,,,,,,,,,,,,,,,,,,,,,,,,,,,,,,,,,,,,,,,,,,
,,,,left,1,0.402,1,1,17,2,1,3,-200,left,832,2022-01-13_11h32.29.331,multiplicationStroop,2021.2.3,Win32,60.12506013,,,,,,,,,,,,,,,,,,,,,,,,,,,,,,,,,,,,,,,,,,,,,,,,,,,,,,,,,
,,,,left,1,0.3876,1,2,18,0,1,1,-200,left,832,2022-01-13_11h32.29.331,multiplicationStroop,2021.2.3,Win32,60.12506013,,,,,,,,,,,,,,,,,,,,,,,,,,,,,,,,,,,,,,,,,,,,,,,,,,,,,,,,,
,,,,right,1,0.3826,1,3,19,10,1,3,200,right,832,2022-01-13_11h32.29.331,multiplicationStroop,2021.2.3,Win32,60.12506013,,,,,,,,,,,,,,,,,,,,,,,,,,,,,,,,,,,,,,,,,,,,,,,,,,,,,,,,,
,,,,right,1,0.4671,1,4,20,9,1,2,200,right,832,2022-01-13_11h32.29.331,multiplicationStroop,2021.2.3,Win32,60.12506013,,,,,,,,,,,,,,,,,,,,,,,,,,,,,,,,,,,,,,,,,,,,,,,,,,,,,,,,,
,,,,left,1,0.5016,1,5,21,5,1,7,-200,left,832,2022-01-13_11h32.29.331,multiplicationStroop,2021.2.3,Win32,60.12506013,,,,,,,,,,,,,,,,,,,,,,,,,,,,,,,,,,,,,,,,,,,,,,,,,,,,,,,,,
,,,,right,1,0.45,1,6,22,15,1,9,200,right,832,2022-01-13_11h32.29.331,multiplicationStroop,2021.2.3,Win32,60.12506013,,,,,,,,,,,,,,,,,,,,,,,,,,,,,,,,,,,,,,,,,,,,,,,,,,,,,,,,,
,,,,left,1,0.3344,1,7,23,3,1,4,-200,left,832,2022-01-13_11h32.29.331,multiplicationStroop,2021.2.3,Win32,60.12506013,,,,,,,,,,,,,,,,,,,,,,,,,,,,,,,,,,,,,,,,,,,,,,,,,,,,,,,,,
,,,,right,1,0.4823,1,8,24,12,1,6,200,right,832,2022-01-13_11h32.29.331,multiplicationStroop,2021.2.3,Win32,60.12506013,,,,,,,,,,,,,,,,,,,,,,,,,,,,,,,,,,,,,,,,,,,,,,,,,,,,,,,,,
,,,,left,1,0.3148,1,9,25,1,1,2,-200,left,832,2022-01-13_11h32.29.331,multiplicationStroop,2021.2.3,Win32,60.12506013,,,,,,,,,,,,,,,,,,,,,,,,,,,,,,,,,,,,,,,,,,,,,,,,,,,,,,,,,
,,,,right,1,0.4984,1,10,26,8,1,1,200,right,832,2022-01-13_11h32.29.331,multiplicationStroop,2021.2.3,Win32,60.12506013,,,,,,,,,,,,,,,,,,,,,,,,,,,,,,,,,,,,,,,,,,,,,,,,,,,,,,,,,
,,,,right,1,0.4812,1,11,27,13,1,7,200,right,832,2022-01-13_11h32.29.331,multiplicationStroop,2021.2.3,Win32,60.12506013,,,,,,,,,,,,,,,,,,,,,,,,,,,,,,,,,,,,,,,,,,,,,,,,,,,,,,,,,
,,,,right,0,0.3649,1,12,28,6,1,8,-200,left,832,2022-01-13_11h32.29.331,multiplicationStroop,2021.2.3,Win32,60.12506013,,,,,,,,,,,,,,,,,,,,,,,,,,,,,,,,,,,,,,,,,,,,,,,,,,,,,,,,,
,,,,right,1,0.5143,1,13,29,14,1,8,200,right,832,2022-01-13_11h32.29.331,multiplicationStroop,2021.2.3,Win32,60.12506013,,,,,,,,,,,,,,,,,,,,,,,,,,,,,,,,,,,,,,,,,,,,,,,,,,,,,,,,,
,,,,left,1,0.3367,1,14,30,4,1,6,-200,left,832,2022-01-13_11h32.29.331,multiplicationStroop,2021.2.3,Win32,60.12506013,,,,,,,,,,,,,,,,,,,,,,,,,,,,,,,,,,,,,,,,,,,,,,,,,,,,,,,,,
,,,,left,1,0.4403,1,15,31,7,1,9,-200,left,832,2022-01-13_11h32.29.331,multiplicationStroop,2021.2.3,Win32,60.12506013,,,,,,,,,,,,,,,,,,,,,,,,,,,,,,,,,,,,,,,,,,,,,,,,,,,,,,,,,
,,,,right,1,0.3682,2,0,32,12,1,6,200,right,832,2022-01-13_11h32.29.331,multiplicationStroop,2021.2.3,Win32,60.12506013,,,,,,,,,,,,,,,,,,,,,,,,,,,,,,,,,,,,,,,,,,,,,,,,,,,,,,,,,
,,,,right,1,0.4646,2,1,33,13,1,7,200,right,832,2022-01-13_11h32.29.331,multiplicationStroop,2021.2.3,Win32,60.12506013,,,,,,,,,,,,,,,,,,,,,,,,,,,,,,,,,,,,,,,,,,,,,,,,,,,,,,,,,
,,,,left,1,0.3846,2,2,34,5,1,7,-200,left,832,2022-01-13_11h32.29.331,multiplicationStroop,2021.2.3,Win32,60.12506013,,,,,,,,,,,,,,,,,,,,,,,,,,,,,,,,,,,,,,,,,,,,,,,,,,,,,,,,,
,,,,left,1,0.3817,2,3,35,1,1,2,-200,left,832,2022-01-13_11h32.29.331,multiplicationStroop,2021.2.3,Win32,60.12506013,,,,,,,,,,,,,,,,,,,,,,,,,,,,,,,,,,,,,,,,,,,,,,,,,,,,,,,,,
,,,,right,1,0.3325,2,4,36,11,1,4,200,right,832,2022-01-13_11h32.29.331,multiplicationStroop,2021.2.3,Win32,60.12506013,,,,,,,,,,,,,,,,,,,,,,,,,,,,,,,,,,,,,,,,,,,,,,,,,,,,,,,,,
,,,,right,1,0.3983,2,5,37,9,1,2,200,right,832,2022-01-13_11h32.29.331,multiplicationStroop,2021.2.3,Win32,60.12506013,,,,,,,,,,,,,,,,,,,,,,,,,,,,,,,,,,,,,,,,,,,,,,,,,,,,,,,,,
,,,,left,1,0.3334,2,6,38,7,1,9,-200,left,832,2022-01-13_11h32.29.331,multiplicationStroop,2021.2.3,Win32,60.12506013,,,,,,,,,,,,,,,,,,,,,,,,,,,,,,,,,,,,,,,,,,,,,,,,,,,,,,,,,
,,,,left,1,0.3544,2,7,39,6,1,8,-200,left,832,2022-01-13_11h32.29.331,multiplicationStroop,2021.2.3,Win32,60.12506013,,,,,,,,,,,,,,,,,,,,,,,,,,,,,,,,,,,,,,,,,,,,,,,,,,,,,,,,,
,,,,right,1,0.3204,2,8,40,15,1,9,200,right,832,2022-01-13_11h32.29.331,multiplicationStroop,2021.2.3,Win32,60.12506013,,,,,,,,,,,,,,,,,,,,,,,,,,,,,,,,,,,,,,,,,,,,,,,,,,,,,,,,,
,,,,right,1,0.3887,2,9,41,14,1,8,200,right,832,2022-01-13_11h32.29.331,multiplicationStroop,2021.2.3,Win32,60.12506013,,,,,,,,,,,,,,,,,,,,,,,,,,,,,,,,,,,,,,,,,,,,,,,,,,,,,,,,,
,,,,left,1,0.3652,2,10,42,4,1,6,-200,left,832,2022-01-13_11h32.29.331,multiplicationStroop,2021.2.3,Win32,60.12506013,,,,,,,,,,,,,,,,,,,,,,,,,,,,,,,,,,,,,,,,,,,,,,,,,,,,,,,,,
,,,,right,1,0.4871,2,11,43,10,1,3,200,right,832,2022-01-13_11h32.29.331,multiplicationStroop,2021.2.3,Win32,60.12506013,,,,,,,,,,,,,,,,,,,,,,,,,,,,,,,,,,,,,,,,,,,,,,,,,,,,,,,,,
,,,,left,1,0.3317,2,12,44,3,1,4,-200,left,832,2022-01-13_11h32.29.331,multiplicationStroop,2021.2.3,Win32,60.12506013,,,,,,,,,,,,,,,,,,,,,,,,,,,,,,,,,,,,,,,,,,,,,,,,,,,,,,,,,
,,,,left,1,0.4228,2,13,45,2,1,3,-200,left,832,2022-01-13_11h32.29.331,multiplicationStroop,2021.2.3,Win32,60.12506013,,,,,,,,,,,,,,,,,,,,,,,,,,,,,,,,,,,,,,,,,,,,,,,,,,,,,,,,,
,,,,right,1,0.4563,2,14,46,8,1,1,200,right,832,2022-01-13_11h32.29.331,multiplicationStroop,2021.2.3,Win32,60.12506013,,,,,,,,,,,,,,,,,,,,,,,,,,,,,,,,,,,,,,,,,,,,,,,,,,,,,,,,,
,,,,left,1,0.3983,2,15,47,0,1,1,-200,left,832,2022-01-13_11h32.29.331,multiplicationStroop,2021.2.3,Win32,60.12506013,,,,,,,,,,,,,,,,,,,,,,,,,,,,,,,,,,,,,,,,,,,,,,,,,,,,,,,,,
,,,,left,1,0.7991,3,0,48,5,1,7,-200,left,832,2022-01-13_11h32.29.331,multiplicationStroop,2021.2.3,Win32,60.12506013,,,,,,,,,,,,,,,,,,,,,,,,,,,,,,,,,,,,,,,,,,,,,,,,,,,,,,,,,
,,,,right,1,0.4825,3,1,49,11,1,4,200,right,832,2022-01-13_11h32.29.331,multiplicationStroop,2021.2.3,Win32,60.12506013,,,,,,,,,,,,,,,,,,,,,,,,,,,,,,,,,,,,,,,,,,,,,,,,,,,,,,,,,
,,,,right,1,0.3915,3,2,50,12,1,6,200,right,832,2022-01-13_11h32.29.331,multiplicationStroop,2021.2.3,Win32,60.12506013,,,,,,,,,,,,,,,,,,,,,,,,,,,,,,,,,,,,,,,,,,,,,,,,,,,,,,,,,
,,,,right,1,0.3301,3,3,51,10,1,3,200,right,832,2022-01-13_11h32.29.331,multiplicationStroop,2021.2.3,Win32,60.12506013,,,,,,,,,,,,,,,,,,,,,,,,,,,,,,,,,,,,,,,,,,,,,,,,,,,,,,,,,
,,,,left,1,0.4489,3,4,52,3,1,4,-200,left,832,2022-01-13_11h32.29.331,multiplicationStroop,2021.2.3,Win32,60.12506013,,,,,,,,,,,,,,,,,,,,,,,,,,,,,,,,,,,,,,,,,,,,,,,,,,,,,,,,,
,,,,right,1,0.3045,3,5,53,15,1,9,200,right,832,2022-01-13_11h32.29.331,multiplicationStroop,2021.2.3,Win32,60.12506013,,,,,,,,,,,,,,,,,,,,,,,,,,,,,,,,,,,,,,,,,,,,,,,,,,,,,,,,,
,,,,right,1,0.3812,3,6,54,13,1,7,200,right,832,2022-01-13_11h32.29.331,multiplicationStroop,2021.2.3,Win32,60.12506013,,,,,,,,,,,,,,,,,,,,,,,,,,,,,,,,,,,,,,,,,,,,,,,,,,,,,,,,,
,,,,left,1,0.3044,3,7,55,1,1,2,-200,left,832,2022-01-13_11h32.29.331,multiplicationStroop,2021.2.3,Win32,60.12506013,,,,,,,,,,,,,,,,,,,,,,,,,,,,,,,,,,,,,,,,,,,,,,,,,,,,,,,,,
,,,,left,1,0.4047,3,8,56,0,1,1,-200,left,832,2022-01-13_11h32.29.331,multiplicationStroop,2021.2.3,Win32,60.12506013,,,,,,,,,,,,,,,,,,,,,,,,,,,,,,,,,,,,,,,,,,,,,,,,,,,,,,,,,
,,,,left,1,0.3158,3,9,57,6,1,8,-200,left,832,2022-01-13_11h32.29.331,multiplicationStroop,2021.2.3,Win32,60.12506013,,,,,,,,,,,,,,,,,,,,,,,,,,,,,,,,,,,,,,,,,,,,,,,,,,,,,,,,,
,,,,left,1,0.2984,3,10,58,7,1,9,-200,left,832,2022-01-13_11h32.29.331,multiplicationStroop,2021.2.3,Win32,60.12506013,,,,,,,,,,,,,,,,,,,,,,,,,,,,,,,,,,,,,,,,,,,,,,,,,,,,,,,,,
,,,,right,1,0.3861,3,11,59,14,1,8,200,right,832,2022-01-13_11h32.29.331,multiplicationStroop,2021.2.3,Win32,60.12506013,,,,,,,,,,,,,,,,,,,,,,,,,,,,,,,,,,,,,,,,,,,,,,,,,,,,,,,,,
,,,,left,1,0.3029,3,12,60,4,1,6,-200,left,832,2022-01-13_11h32.29.331,multiplicationStroop,2021.2.3,Win32,60.12506013,,,,,,,,,,,,,,,,,,,,,,,,,,,,,,,,,,,,,,,,,,,,,,,,,,,,,,,,,
,,,,left,1,0.3984,3,13,61,2,1,3,-200,left,832,2022-01-13_11h32.29.331,multiplicationStroop,2021.2.3,Win32,60.12506013,,,,,,,,,,,,,,,,,,,,,,,,,,,,,,,,,,,,,,,,,,,,,,,,,,,,,,,,,
,,,,right,1,0.3585,3,14,62,9,1,2,200,right,832,2022-01-13_11h32.29.331,multiplicationStroop,2021.2.3,Win32,60.12506013,,,,,,,,,,,,,,,,,,,,,,,,,,,,,,,,,,,,,,,,,,,,,,,,,,,,,,,,,
,,,,left,0,0.3321,3,15,63,8,1,1,200,right,832,2022-01-13_11h32.29.331,multiplicationStroop,2021.2.3,Win32,60.12506013,,,,,,,,,,,,,,,,,,,,,,,,,,,,,,,,,,,,,,,,,,,,,,,,,,,,,,,,,
,,,,,,,,,,,,,,,832,2022-01-13_11h32.29.331,multiplicationStroop,2021.2.3,Win32,60.12506013,space,6.5501,space,3.0753,left,1,0.6243,0,0,0,13,1,4,2,4 | 2,2,1.9756,1.4111,congruent,left,,,,,,stimulusFile/magnitude.xlsx,,,,,,,,,,,,,,,,,,,,,,,,,,,,,,,
,,,,,,,,,,,,,,,832,2022-01-13_11h32.29.331,multiplicationStroop,2021.2.3,Win32,60.12506013,,,,,left,0,0.7392,0,1,1,25,1,3,4,3 | 4,1,1.9756,1.4111,incongruent,right,,,,,,stimulusFile/magnitude.xlsx,,,,,,,,,,,,,,,,,,,,,,,,,,,,,,,
,,,,,,,,,,,,,,,832,2022-01-13_11h32.29.331,multiplicationStroop,2021.2.3,Win32,60.12506013,,,,,right,1,0.4814,0,2,2,19,1,4,9,4 | 9,5,1.4111,1.9756,congruent,right,,,,,,stimulusFile/magnitude.xlsx,,,,,,,,,,,,,,,,,,,,,,,,,,,,,,,
,,,,,,,,,,,,,,,832,2022-01-13_11h32.29.331,multiplicationStroop,2021.2.3,Win32,60.12506013,,,,,left,0,0.6649,0,3,3,40,1,1,6,1 | 6,5,1.9756,1.4111,incongruent,right,,,,,,stimulusFile/magnitude.xlsx,,,,,,,,,,,,,,,,,,,,,,,,,,,,,,,
,,,,,,,,,,,,,,,832,2022-01-13_11h32.29.331,multiplicationStroop,2021.2.3,Win32,60.12506013,,,,,right,0,2.5514,0,4,4,55,1,9,8,9 | 8,1,1.6933,1.6933,neutral,left,,,,,,stimulusFile/magnitude.xlsx,,,,,,,,,,,,,,,,,,,,,,,,,,,,,,,
,,,,,,,,,,,,,,,832,2022-01-13_11h32.29.331,multiplicationStroop,2021.2.3,Win32,60.12506013,,,,,right,1,0.6207,0,5,5,10,1,6,8,6 | 8,2,1.4111,1.9756,congruent,right,,,,,,stimulusFile/magnitude.xlsx,,,,,,,,,,,,,,,,,,,,,,,,,,,,,,,
,,,,,,,,,,,,,,,832,2022-01-13_11h32.29.331,multiplicationStroop,2021.2.3,Win32,60.12506013,,,,,right,1,0.4815,0,6,6,11,1,7,9,7 | 9,2,1.4111,1.9756,congruent,right,,,,,,stimulusFile/magnitude.xlsx,,,,,,,,,,,,,,,,,,,,,,,,,,,,,,,
,,,,,,,,,,,,,,,832,2022-01-13_11h32.29.331,multiplicationStroop,2021.2.3,Win32,60.12506013,,,,,left,0,1.4818,0,7,7,48,1,1,2,1 | 2,1,1.6933,1.6933,neutral,right,,,,,,stimulusFile/magnitude.xlsx,,,,,,,,,,,,,,,,,,,,,,,,,,,,,,,
,,,,,,,,,,,,,,,832,2022-01-13_11h32.29.331,multiplicationStroop,2021.2.3,Win32,60.12506013,,,,,right,1,1.2822,0,8,8,58,1,6,8,6 | 8,2,1.6933,1.6933,neutral,right,,,,,,stimulusFile/magnitude.xlsx,,,,,,,,,,,,,,,,,,,,,,,,,,,,,,,
,,,,,,,,,,,,,,,832,2022-01-13_11h32.29.331,multiplicationStroop,2021.2.3,Win32,60.12506013,,,,,right,1,0.631,0,9,9,0,1,1,2,1 | 2,1,1.4111,1.9756,congruent,right,,,,,,stimulusFile/magnitude.xlsx,,,,,,,,,,,,,,,,,,,,,,,,,,,,,,,
,,,,,,,,,,,,,,,832,2022-01-13_11h32.29.331,multiplicationStroop,2021.2.3,Win32,60.12506013,,,,,left,1,0.7382,0,10,10,21,1,7,2,7 | 2,5,1.9756,1.4111,congruent,left,,,,,,stimulusFile/magnitude.xlsx,,,,,,,,,,,,,,,,,,,,,,,,,,,,,,,
,,,,,,,,,,,,,,,832,2022-01-13_11h32.29.331,multiplicationStroop,2021.2.3,Win32,60.12506013,,,,,left,1,0.6664,0,11,11,4,1,2,1,2 | 1,1,1.9756,1.4111,congruent,left,,,,,,stimulusFile/magnitude.xlsx,,,,,,,,,,,,,,,,,,,,,,,,,,,,,,,
,,,,,,,,,,,,,,,832,2022-01-13_11h32.29.331,multiplicationStroop,2021.2.3,Win32,60.12506013,,,,,left,0,0.9816,0,12,12,49,1,3,4,3 | 4,1,1.6933,1.6933,neutral,right,,,,,,stimulusFile/magnitude.xlsx,,,,,,,,,,,,,,,,,,,,,,,,,,,,,,,
,,,,,,,,,,,,,,,832,2022-01-13_11h32.29.331,multiplicationStroop,2021.2.3,Win32,60.12506013,,,,,right,0,0.54,0,13,13,30,1,7,6,7 | 6,1,1.4111,1.9756,incongruent,left,,,,,,stimulusFile/magnitude.xlsx,,,,,,,,,,,,,,,,,,,,,,,,,,,,,,,
,,,,,,,,,,,,,,,832,2022-01-13_11h32.29.331,multiplicationStroop,2021.2.3,Win32,60.12506013,,,,,right,0,0.7158,0,14,14,68,1,6,1,6 | 1,5,1.6933,1.6933,neutral,left,,,,,,stimulusFile/magnitude.xlsx,,,,,,,,,,,,,,,,,,,,,,,,,,,,,,,
,,,,,,,,,,,,,,,832,2022-01-13_11h32.29.331,multiplicationStroop,2021.2.3,Win32,60.12506013,,,,,left,0,0.6214,0,15,15,35,1,7,9,7 | 9,2,1.9756,1.4111,incongruent,right,,,,,,stimulusFile/magnitude.xlsx,,,,,,,,,,,,,,,,,,,,,,,,,,,,,,,
,,,,,,,,,,,,,,,832,2022-01-13_11h32.29.331,multiplicationStroop,2021.2.3,Win32,60.12506013,,,,,right,1,0.5321,0,16,16,18,1,3,8,3 | 8,5,1.4111,1.9756,congruent,right,,,,,,stimulusFile/magnitude.xlsx,,,,,,,,,,,,,,,,,,,,,,,,,,,,,,,
,,,,,,,,,,,,,,,832,2022-01-13_11h32.29.331,multiplicationStroop,2021.2.3,Win32,60.12506013,,,,,left,0,0.9492,0,17,17,33,1,2,4,2 | 4,2,1.9756,1.4111,incongruent,right,,,,,,stimulusFile/magnitude.xlsx,,,,,,,,,,,,,,,,,,,,,,,,,,,,,,,
,,,,,,,,,,,,,,,832,2022-01-13_11h32.29.331,multiplicationStroop,2021.2.3,Win32,60.12506013,,,,,right,1,1.1832,0,18,18,57,1,2,4,2 | 4,2,1.6933,1.6933,neutral,right,,,,,,stimulusFile/magnitude.xlsx,,,,,,,,,,,,,,,,,,,,,,,,,,,,,,,
,,,,,,,,,,,,,,,832,2022-01-13_11h32.29.331,multiplicationStroop,2021.2.3,Win32,60.12506013,,,,,right,1,0.6745,0,19,19,2,1,6,7,6 | 7,1,1.4111,1.9756,congruent,right,,,,,,stimulusFile/magnitude.xlsx,,,,,,,,,,,,,,,,,,,,,,,,,,,,,,,
,,,,,,,,,,,,,,,832,2022-01-13_11h32.29.331,multiplicationStroop,2021.2.3,Win32,60.12506013,,,,,left,1,0.5353,0,20,20,71,1,9,4,9 | 4,5,1.6933,1.6933,neutral,left,,,,,,stimulusFile/magnitude.xlsx,,,,,,,,,,,,,,,,,,,,,,,,,,,,,,,
,,,,,,,,,,,,,,,832,2022-01-13_11h32.29.331,multiplicationStroop,2021.2.3,Win32,60.12506013,,,,,right,0,0.6483,0,21,21,45,1,7,2,7 | 2,5,1.4111,1.9756,incongruent,left,,,,,,stimulusFile/magnitude.xlsx,,,,,,,,,,,,,,,,,,,,,,,,,,,,,,,
,,,,,,,,,,,,,,,832,2022-01-13_11h32.29.331,multiplicationStroop,2021.2.3,Win32,60.12506013,,,,,left,1,0.5904,0,22,22,15,1,9,7,9 | 7,2,1.9756,1.4111,congruent,left,,,,,,stimulusFile/magnitude.xlsx,,,,,,,,,,,,,,,,,,,,,,,,,,,,,,,
,,,,,,,,,,,,,,,832,2022-01-13_11h32.29.331,multiplicationStroop,2021.2.3,Win32,60.12506013,,,,,right,0,0.524,0,23,23,47,1,9,4,9 | 4,5,1.4111,1.9756,incongruent,left,,,,,,stimulusFile/magnitude.xlsx,,,,,,,,,,,,,,,,,,,,,,,,,,,,,,,
,,,,,,,,,,,,,,,832,2022-01-13_11h32.29.331,multiplicationStroop,2021.2.3,Win32,60.12506013,,,,,left,1,0.4815,0,24,24,22,1,8,3,8 | 3,5,1.9756,1.4111,congruent,left,,,,,,stimulusFile/magnitude.xlsx,,,,,,,,,,,,,,,,,,,,,,,,,,,,,,,
,,,,,,,,,,,,,,,832,2022-01-13_11h32.29.331,multiplicationStroop,2021.2.3,Win32,60.12506013,,,,,right,1,0.5153,0,25,25,3,1,8,9,8 | 9,1,1.4111,1.9756,congruent,right,,,,,,stimulusFile/magnitude.xlsx,,,,,,,,,,,,,,,,,,,,,,,,,,,,,,,
,,,,,,,,,,,,,,,832,2022-01-13_11h32.29.331,multiplicationStroop,2021.2.3,Win32,60.12506013,,,,,left,0,0.5825,0,26,26,27,1,8,9,8 | 9,1,1.9756,1.4111,incongruent,right,,,,,,stimulusFile/magnitude.xlsx,,,,,,,,,,,,,,,,,,,,,,,,,,,,,,,
,,,,,,,,,,,,,,,832,2022-01-13_11h32.29.331,multiplicationStroop,2021.2.3,Win32,60.12506013,,,,,left,0,0.5912,0,27,27,26,1,6,7,6 | 7,1,1.9756,1.4111,incongruent,right,,,,,,stimulusFile/magnitude.xlsx,,,,,,,,,,,,,,,,,,,,,,,,,,,,,,,
,,,,,,,,,,,,,,,832,2022-01-13_11h32.29.331,multiplicationStroop,2021.2.3,Win32,60.12506013,,,,,right,0,0.5547,0,28,28,44,1,6,1,6 | 1,5,1.4111,1.9756,incongruent,left,,,,,,stimulusFile/magnitude.xlsx,,,,,,,,,,,,,,,,,,,,,,,,,,,,,,,
,,,,,,,,,,,,,,,832,2022-01-13_11h32.29.331,multiplicationStroop,2021.2.3,Win32,60.12506013,,,,,left,0,0.6683,0,29,29,24,1,1,2,1 | 2,1,1.9756,1.4111,incongruent,right,,,,,,stimulusFile/magnitude.xlsx,,,,,,,,,,,,,,,,,,,,,,,,,,,,,,,
,,,,,,,,,,,,,,,832,2022-01-13_11h32.29.331,multiplicationStroop,2021.2.3,Win32,60.12506013,,,,,left,1,0.6155,0,30,30,5,1,4,3,4 | 3,1,1.9756,1.4111,congruent,left,,,,,,stimulusFile/magnitude.xlsx,,,,,,,,,,,,,,,,,,,,,,,,,,,,,,,
,,,,,,,,,,,,,,,832,2022-01-13_11h32.29.331,multiplicationStroop,2021.2.3,Win32,60.12506013,,,,,left,0,0.5484,0,31,31,34,1,6,8,6 | 8,2,1.9756,1.4111,incongruent,right,,,,,,stimulusFile/magnitude.xlsx,,,,,,,,,,,,,,,,,,,,,,,,,,,,,,,
,,,,,,,,,,,,,,,832,2022-01-13_11h32.29.331,multiplicationStroop,2021.2.3,Win32,60.12506013,,,,,right,1,0.5156,0,32,32,17,1,2,7,2 | 7,5,1.4111,1.9756,congruent,right,,,,,,stimulusFile/magnitude.xlsx,,,,,,,,,,,,,,,,,,,,,,,,,,,,,,,
,,,,,,,,,,,,,,,832,2022-01-13_11h32.29.331,multiplicationStroop,2021.2.3,Win32,60.12506013,,,,,left,0,0.5678,0,33,33,32,1,1,3,1 | 3,2,1.9756,1.4111,incongruent,right,,,,,,stimulusFile/magnitude.xlsx,,,,,,,,,,,,,,,,,,,,,,,,,,,,,,,
,,,,,,,,,,,,,,,832,2022-01-13_11h32.29.331,multiplicationStroop,2021.2.3,Win32,60.12506013,,,,,right,0,0.4898,0,34,34,31,1,9,8,9 | 8,1,1.4111,1.9756,incongruent,left,,,,,,stimulusFile/magnitude.xlsx,,,,,,,,,,,,,,,,,,,,,,,,,,,,,,,
,,,,,,,,,,,,,,,832,2022-01-13_11h32.29.331,multiplicationStroop,2021.2.3,Win32,60.12506013,,,,,left,1,0.565,0,35,35,52,1,2,1,2 | 1,1,1.6933,1.6933,neutral,left,,,,,,stimulusFile/magnitude.xlsx,,,,,,,,,,,,,,,,,,,,,,,,,,,,,,,
,,,,,,,,,,,,,,,832,2022-01-13_11h32.29.331,multiplicationStroop,2021.2.3,Win32,60.12506013,,,,,right,1,0.6708,0,36,36,67,1,4,9,4 | 9,5,1.6933,1.6933,neutral,right,,,,,,stimulusFile/magnitude.xlsx,,,,,,,,,,,,,,,,,,,,,,,,,,,,,,,
,,,,,,,,,,,,,,,832,2022-01-13_11h32.29.331,multiplicationStroop,2021.2.3,Win32,60.12506013,,,,,right,1,0.6175,0,37,37,16,1,1,6,1 | 6,5,1.4111,1.9756,congruent,right,,,,,,stimulusFile/magnitude.xlsx,,,,,,,,,,,,,,,,,,,,,,,,,,,,,,,
,,,,,,,,,,,,,,,832,2022-01-13_11h32.29.331,multiplicationStroop,2021.2.3,Win32,60.12506013,,,,,left,1,0.6041,0,38,38,14,1,8,6,8 | 6,2,1.9756,1.4111,congruent,left,,,,,,stimulusFile/magnitude.xlsx,,,,,,,,,,,,,,,,,,,,,,,,,,,,,,,
,,,,,,,,,,,,,,,832,2022-01-13_11h32.29.331,multiplicationStroop,2021.2.3,Win32,60.12506013,,,,,right,1,0.5321,0,39,39,9,1,2,4,2 | 4,2,1.4111,1.9756,congruent,right,,,,,,stimulusFile/magnitude.xlsx,,,,,,,,,,,,,,,,,,,,,,,,,,,,,,,
,,,,,,,,,,,,,,,832,2022-01-13_11h32.29.331,multiplicationStroop,2021.2.3,Win32,60.12506013,,,,,right,0,0.5985,0,40,40,54,1,7,6,7 | 6,1,1.6933,1.6933,neutral,left,,,,,,stimulusFile/magnitude.xlsx,,,,,,,,,,,,,,,,,,,,,,,,,,,,,,,
,,,,,,,,,,,,,,,832,2022-01-13_11h32.29.331,multiplicationStroop,2021.2.3,Win32,60.12506013,,,,,right,1,0.8652,0,41,41,65,1,2,7,2 | 7,5,1.6933,1.6933,neutral,right,,,,,,stimulusFile/magnitude.xlsx,,,,,,,,,,,,,,,,,,,,,,,,,,,,,,,
,,,,,,,,,,,,,,,832,2022-01-13_11h32.29.331,multiplicationStroop,2021.2.3,Win32,60.12506013,,,,,left,1,0.6349,0,42,42,69,1,7,2,7 | 2,5,1.6933,1.6933,neutral,left,,,,,,stimulusFile/magnitude.xlsx,,,,,,,,,,,,,,,,,,,,,,,,,,,,,,,
,,,,,,,,,,,,,,,832,2022-01-13_11h32.29.331,multiplicationStroop,2021.2.3,Win32,60.12506013,,,,,right,0,0.6513,0,43,43,37,1,4,2,4 | 2,2,1.4111,1.9756,incongruent,left,,,,,,stimulusFile/magnitude.xlsx,,,,,,,,,,,,,,,,,,,,,,,,,,,,,,,
,,,,,,,,,,,,,,,832,2022-01-13_11h32.29.331,multiplicationStroop,2021.2.3,Win32,60.12506013,,,,,left,1,0.6823,0,44,44,60,1,3,1,3 | 1,2,1.6933,1.6933,neutral,left,,,,,,stimulusFile/magnitude.xlsx,,,,,,,,,,,,,,,,,,,,,,,,,,,,,,,
,,,,,,,,,,,,,,,832,2022-01-13_11h32.29.331,multiplicationStroop,2021.2.3,Win32,60.12506013,,,,,right,1,0.6482,0,45,45,64,1,1,6,1 | 6,5,1.6933,1.6933,neutral,right,,,,,,stimulusFile/magnitude.xlsx,,,,,,,,,,,,,,,,,,,,,,,,,,,,,,,
,,,,,,,,,,,,,,,832,2022-01-13_11h32.29.331,multiplicationStroop,2021.2.3,Win32,60.12506013,,,,,right,0,0.6183,0,46,46,29,1,4,3,4 | 3,1,1.4111,1.9756,incongruent,left,,,,,,stimulusFile/magnitude.xlsx,,,,,,,,,,,,,,,,,,,,,,,,,,,,,,,
,,,,,,,,,,,,,,,832,2022-01-13_11h32.29.331,multiplicationStroop,2021.2.3,Win32,60.12506013,,,,,right,0,0.7076,0,47,47,28,1,2,1,2 | 1,1,1.4111,1.9756,incongruent,left,,,,,,stimulusFile/magnitude.xlsx,,,,,,,,,,,,,,,,,,,,,,,,,,,,,,,
,,,,,,,,,,,,,,,832,2022-01-13_11h32.29.331,multiplicationStroop,2021.2.3,Win32,60.12506013,,,,,left,1,0.6481,0,48,48,6,1,7,6,7 | 6,1,1.9756,1.4111,congruent,left,,,,,,stimulusFile/magnitude.xlsx,,,,,,,,,,,,,,,,,,,,,,,,,,,,,,,
,,,,,,,,,,,,,,,832,2022-01-13_11h32.29.331,multiplicationStroop,2021.2.3,Win32,60.12506013,,,,,left,1,0.5215,0,49,49,7,1,9,8,9 | 8,1,1.9756,1.4111,congruent,left,,,,,,stimulusFile/magnitude.xlsx,,,,,,,,,,,,,,,,,,,,,,,,,,,,,,,
,,,,,,,,,,,,,,,832,2022-01-13_11h32.29.331,multiplicationStroop,2021.2.3,Win32,60.12506013,,,,,right,1,0.5484,0,50,50,51,1,8,9,8 | 9,1,1.6933,1.6933,neutral,right,,,,,,stimulusFile/magnitude.xlsx,,,,,,,,,,,,,,,,,,,,,,,,,,,,,,,
,,,,,,,,,,,,,,,832,2022-01-13_11h32.29.331,multiplicationStroop,2021.2.3,Win32,60.12506013,,,,,right,1,0.6541,0,51,51,1,1,3,4,3 | 4,1,1.4111,1.9756,congruent,right,,,,,,stimulusFile/magnitude.xlsx,,,,,,,,,,,,,,,,,,,,,,,,,,,,,,,
,,,,,,,,,,,,,,,832,2022-01-13_11h32.29.331,multiplicationStroop,2021.2.3,Win32,60.12506013,,,,,left,0,0.4888,0,52,52,59,1,7,9,7 | 9,2,1.6933,1.6933,neutral,right,,,,,,stimulusFile/magnitude.xlsx,,,,,,,,,,,,,,,,,,,,,,,,,,,,,,,
,,,,,,,,,,,,,,,832,2022-01-13_11h32.29.331,multiplicationStroop,2021.2.3,Win32,60.12506013,,,,,right,1,0.584,0,53,53,8,1,1,3,1 | 3,2,1.4111,1.9756,congruent,right,,,,,,stimulusFile/magnitude.xlsx,,,,,,,,,,,,,,,,,,,,,,,,,,,,,,,
,,,,,,,,,,,,,,,832,2022-01-13_11h32.29.331,multiplicationStroop,2021.2.3,Win32,60.12506013,,,,,left,1,0.5693,0,54,54,12,1,3,1,3 | 1,2,1.9756,1.4111,congruent,left,,,,,,stimulusFile/magnitude.xlsx,,,,,,,,,,,,,,,,,,,,,,,,,,,,,,,
,,,,,,,,,,,,,,,832,2022-01-13_11h32.29.331,multiplicationStroop,2021.2.3,Win32,60.12506013,,,,,left,1,0.5247,0,55,55,70,1,8,3,8 | 3,5,1.6933,1.6933,neutral,left,,,,,,stimulusFile/magnitude.xlsx,,,,,,,,,,,,,,,,,,,,,,,,,,,,,,,
,,,,,,,,,,,,,,,832,2022-01-13_11h32.29.331,multiplicationStroop,2021.2.3,Win32,60.12506013,,,,,right,1,0.5648,0,56,56,50,1,6,7,6 | 7,1,1.6933,1.6933,neutral,right,,,,,,stimulusFile/magnitude.xlsx,,,,,,,,,,,,,,,,,,,,,,,,,,,,,,,
,,,,,,,,,,,,,,,832,2022-01-13_11h32.29.331,multiplicationStroop,2021.2.3,Win32,60.12506013,,,,,right,0,0.5316,0,57,57,46,1,8,3,8 | 3,5,1.4111,1.9756,incongruent,left,,,,,,stimulusFile/magnitude.xlsx,,,,,,,,,,,,,,,,,,,,,,,,,,,,,,,
,,,,,,,,,,,,,,,832,2022-01-13_11h32.29.331,multiplicationStroop,2021.2.3,Win32,60.12506013,,,,,left,1,0.5223,0,58,58,53,1,4,3,4 | 3,1,1.6933,1.6933,neutral,left,,,,,,stimulusFile/magnitude.xlsx,,,,,,,,,,,,,,,,,,,,,,,,,,,,,,,
,,,,,,,,,,,,,,,832,2022-01-13_11h32.29.331,multiplicationStroop,2021.2.3,Win32,60.12506013,,,,,left,1,0.5493,0,59,59,23,1,9,4,9 | 4,5,1.9756,1.4111,congruent,left,,,,,,stimulusFile/magnitude.xlsx,,,,,,,,,,,,,,,,,,,,,,,,,,,,,,,
,,,,,,,,,,,,,,,832,2022-01-13_11h32.29.331,multiplicationStroop,2021.2.3,Win32,60.12506013,,,,,right,1,0.5982,0,60,60,56,1,1,3,1 | 3,2,1.6933,1.6933,neutral,right,,,,,,stimulusFile/magnitude.xlsx,,,,,,,,,,,,,,,,,,,,,,,,,,,,,,,
,,,,,,,,,,,,,,,832,2022-01-13_11h32.29.331,multiplicationStroop,2021.2.3,Win32,60.12506013,,,,,left,1,0.5246,0,61,61,20,1,6,1,6 | 1,5,1.9756,1.4111,congruent,left,,,,,,stimulusFile/magnitude.xlsx,,,,,,,,,,,,,,,,,,,,,,,,,,,,,,,
,,,,,,,,,,,,,,,832,2022-01-13_11h32.29.331,multiplicationStroop,2021.2.3,Win32,60.12506013,,,,,left,0,0.5478,0,62,62,41,1,2,7,2 | 7,5,1.9756,1.4111,incongruent,right,,,,,,stimulusFile/magnitude.xlsx,,,,,,,,,,,,,,,,,,,,,,,,,,,,,,,
,,,,,,,,,,,,,,,832,2022-01-13_11h32.29.331,multiplicationStroop,2021.2.3,Win32,60.12506013,,,,,left,0,0.6337,0,63,63,42,1,3,8,3 | 8,5,1.9756,1.4111,incongruent,right,,,,,,stimulusFile/magnitude.xlsx,,,,,,,,,,,,,,,,,,,,,,,,,,,,,,,
,,,,,,,,,,,,,,,832,2022-01-13_11h32.29.331,multiplicationStroop,2021.2.3,Win32,60.12506013,,,,,right,0,0.599,0,64,64,62,1,8,6,8 | 6,2,1.6933,1.6933,neutral,left,,,,,,stimulusFile/magnitude.xlsx,,,,,,,,,,,,,,,,,,,,,,,,,,,,,,,
,,,,,,,,,,,,,,,832,2022-01-13_11h32.29.331,multiplicationStroop,2021.2.3,Win32,60.12506013,,,,,left,1,0.3236,0,65,65,39,1,9,7,9 | 7,2,1.4111,1.9756,incongruent,left,,,,,,stimulusFile/magnitude.xlsx,,,,,,,,,,,,,,,,,,,,,,,,,,,,,,,
,,,,,,,,,,,,,,,832,2022-01-13_11h32.29.331,multiplicationStroop,2021.2.3,Win32,60.12506013,,,,,left,1,0.3731,0,66,66,38,1,8,6,8 | 6,2,1.4111,1.9756,incongruent,left,,,,,,stimulusFile/magnitude.xlsx,,,,,,,,,,,,,,,,,,,,,,,,,,,,,,,
,,,,,,,,,,,,,,,832,2022-01-13_11h32.29.331,multiplicationStroop,2021.2.3,Win32,60.12506013,,,,,left,0,0.5814,0,67,67,43,1,4,9,4 | 9,5,1.9756,1.4111,incongruent,right,,,,,,stimulusFile/magnitude.xlsx,,,,,,,,,,,,,,,,,,,,,,,,,,,,,,,
,,,,,,,,,,,,,,,832,2022-01-13_11h32.29.331,multiplicationStroop,2021.2.3,Win32,60.12506013,,,,,right,0,0.5825,0,68,68,36,1,3,1,3 | 1,2,1.4111,1.9756,incongruent,left,,,,,,stimulusFile/magnitude.xlsx,,,,,,,,,,,,,,,,,,,,,,,,,,,,,,,
,,,,,,,,,,,,,,,832,2022-01-13_11h32.29.331,multiplicationStroop,2021.2.3,Win32,60.12506013,,,,,right,0,0.7324,0,69,69,63,1,9,7,9 | 7,2,1.6933,1.6933,neutral,left,,,,,,stimulusFile/magnitude.xlsx,,,,,,,,,,,,,,,,,,,,,,,,,,,,,,,
,,,,,,,,,,,,,,,832,2022-01-13_11h32.29.331,multiplicationStroop,2021.2.3,Win32,60.12506013,,,,,left,1,0.7028,0,70,70,61,1,4,2,4 | 2,2,1.6933,1.6933,neutral,left,,,,,,stimulusFile/magnitude.xlsx,,,,,,,,,,,,,,,,,,,,,,,,,,,,,,,
,,,,,,,,,,,,,,,832,2022-01-13_11h32.29.331,multiplicationStroop,2021.2.3,Win32,60.12506013,,,,,right,1,0.5999,0,71,71,66,1,3,8,3 | 8,5,1.6933,1.6933,neutral,right,,,,,,stimulusFile/magnitude.xlsx,,,,,,,,,,,,,,,,,,,,,,,,,,,,,,,
,,,,,,,,,,,,,,,832,2022-01-13_11h32.29.331,multiplicationStroop,2021.2.3,Win32,60.12506013,,,,,,,,,,,,,,,,,,,,,0,0,0,0,1,stimulusFile/magnitude.xlsx,NUMERICALLY larger.,images/numericallyLarger.png,,,,,,,,,,,,,,,,,,,,,,,,,,,,,
,,,,,,,,,,,,,,,832,2022-01-13_11h32.29.331,multiplicationStroop,2021.2.3,Win32,60.12506013,space,5.9723,space,5.5508,left,1,0.6335,0,0,0,40,1,1,6,1 | 6,5,1.9756,1.4111,incongruent,left,,,,,,stimulusFile/physical.xlsx,,,,,,,,,,,,,,,,,,,,,,,,,,,,,,,
,,,,,,,,,,,,,,,832,2022-01-13_11h32.29.331,multiplicationStroop,2021.2.3,Win32,60.12506013,,,,,left,1,0.6326,0,1,1,55,1,9,9,9 | 9,0,1.9756,1.4111,neutral,left,,,,,,stimulusFile/physical.xlsx,,,,,,,,,,,,,,,,,,,,,,,,,,,,,,,
,,,,,,,,,,,,,,,832,2022-01-13_11h32.29.331,multiplicationStroop,2021.2.3,Win32,60.12506013,,,,,right,1,0.52,0,2,2,19,1,4,9,4 | 9,5,1.4111,1.9756,congruent,right,,,,,,stimulusFile/physical.xlsx,,,,,,,,,,,,,,,,,,,,,,,,,,,,,,,
,,,,,,,,,,,,,,,832,2022-01-13_11h32.29.331,multiplicationStroop,2021.2.3,Win32,60.12506013,,,,,left,1,0.6643,0,3,3,52,1,2,2,2 | 2,0,1.9756,1.4111,neutral,left,,,,,,stimulusFile/physical.xlsx,,,,,,,,,,,,,,,,,,,,,,,,,,,,,,,
,,,,,,,,,,,,,,,832,2022-01-13_11h32.29.331,multiplicationStroop,2021.2.3,Win32,60.12506013,,,,,left,1,0.6201,0,4,4,51,1,8,8,8 | 8,0,1.9756,1.4111,neutral,left,,,,,,stimulusFile/physical.xlsx,,,,,,,,,,,,,,,,,,,,,,,,,,,,,,,
,,,,,,,,,,,,,,,832,2022-01-13_11h32.29.331,multiplicationStroop,2021.2.3,Win32,60.12506013,,,,,left,1,0.6372,0,5,5,41,1,2,7,2 | 7,5,1.9756,1.4111,incongruent,left,,,,,,stimulusFile/physical.xlsx,,,,,,,,,,,,,,,,,,,,,,,,,,,,,,,
,,,,,,,,,,,,,,,832,2022-01-13_11h32.29.331,multiplicationStroop,2021.2.3,Win32,60.12506013,,,,,right,1,0.6151,0,6,6,57,1,2,2,2 | 2,0,1.4111,1.9756,neutral,right,,,,,,stimulusFile/physical.xlsx,,,,,,,,,,,,,,,,,,,,,,,,,,,,,,,
,,,,,,,,,,,,,,,832,2022-01-13_11h32.29.331,multiplicationStroop,2021.2.3,Win32,60.12506013,,,,,left,1,0.5229,0,7,7,15,1,9,7,9 | 7,2,1.9756,1.4111,congruent,left,,,,,,stimulusFile/physical.xlsx,,,,,,,,,,,,,,,,,,,,,,,,,,,,,,,
,,,,,,,,,,,,,,,832,2022-01-13_11h32.29.331,multiplicationStroop,2021.2.3,Win32,60.12506013,,,,,right,1,0.6241,0,8,8,47,1,9,4,9 | 4,5,1.4111,1.9756,incongruent,right,,,,,,stimulusFile/physical.xlsx,,,,,,,,,,,,,,,,,,,,,,,,,,,,,,,
,,,,,,,,,,,,,,,832,2022-01-13_11h32.29.331,multiplicationStroop,2021.2.3,Win32,60.12506013,,,,,right,1,0.5482,0,9,9,31,1,9,8,9 | 8,1,1.4111,1.9756,incongruent,right,,,,,,stimulusFile/physical.xlsx,,,,,,,,,,,,,,,,,,,,,,,,,,,,,,,
,,,,,,,,,,,,,,,832,2022-01-13_11h32.29.331,multiplicationStroop,2021.2.3,Win32,60.12506013,,,,,right,1,0.4503,0,10,10,3,1,8,9,8 | 9,1,1.4111,1.9756,congruent,right,,,,,,stimulusFile/physical.xlsx,,,,,,,,,,,,,,,,,,,,,,,,,,,,,,,
,,,,,,,,,,,,,,,832,2022-01-13_11h32.29.331,multiplicationStroop,2021.2.3,Win32,60.12506013,,,,,left,1,0.5493,0,11,11,25,1,3,4,3 | 4,1,1.9756,1.4111,incongruent,left,,,,,,stimulusFile/physical.xlsx,,,,,,,,,,,,,,,,,,,,,,,,,,,,,,,
,,,,,,,,,,,,,,,832,2022-01-13_11h32.29.331,multiplicationStroop,2021.2.3,Win32,60.12506013,,,,,left,1,0.4989,0,12,12,21,1,7,2,7 | 2,5,1.9756,1.4111,congruent,left,,,,,,stimulusFile/physical.xlsx,,,,,,,,,,,,,,,,,,,,,,,,,,,,,,,
,,,,,,,,,,,,,,,832,2022-01-13_11h32.29.331,multiplicationStroop,2021.2.3,Win32,60.12506013,,,,,right,1,0.5411,0,13,13,59,1,7,7,7 | 7,0,1.4111,1.9756,neutral,right,,,,,,stimulusFile/physical.xlsx,,,,,,,,,,,,,,,,,,,,,,,,,,,,,,,
,,,,,,,,,,,,,,,832,2022-01-13_11h32.29.331,multiplicationStroop,2021.2.3,Win32,60.12506013,,,,,left,1,0.4513,0,14,14,13,1,4,2,4 | 2,2,1.9756,1.4111,congruent,left,,,,,,stimulusFile/physical.xlsx,,,,,,,,,,,,,,,,,,,,,,,,,,,,,,,
,,,,,,,,,,,,,,,832,2022-01-13_11h32.29.331,multiplicationStroop,2021.2.3,Win32,60.12506013,,,,,right,1,0.7054,0,15,15,67,1,4,4,4 | 4,0,1.4111,1.9756,neutral,right,,,,,,stimulusFile/physical.xlsx,,,,,,,,,,,,,,,,,,,,,,,,,,,,,,,
,,,,,,,,,,,,,,,832,2022-01-13_11h32.29.331,multiplicationStroop,2021.2.3,Win32,60.12506013,,,,,right,1,0.5485,0,16,16,37,1,4,2,4 | 2,2,1.4111,1.9756,incongruent,right,,,,,,stimulusFile/physical.xlsx,,,,,,,,,,,,,,,,,,,,,,,,,,,,,,,
,,,,,,,,,,,,,,,832,2022-01-13_11h32.29.331,multiplicationStroop,2021.2.3,Win32,60.12506013,,,,,left,1,0.5225,0,17,17,4,1,2,1,2 | 1,1,1.9756,1.4111,congruent,left,,,,,,stimulusFile/physical.xlsx,,,,,,,,,,,,,,,,,,,,,,,,,,,,,,,
,,,,,,,,,,,,,,,832,2022-01-13_11h32.29.331,multiplicationStroop,2021.2.3,Win32,60.12506013,,,,,right,1,0.54,0,18,18,9,1,2,4,2 | 4,2,1.4111,1.9756,congruent,right,,,,,,stimulusFile/physical.xlsx,,,,,,,,,,,,,,,,,,,,,,,,,,,,,,,
,,,,,,,,,,,,,,,832,2022-01-13_11h32.29.331,multiplicationStroop,2021.2.3,Win32,60.12506013,,,,,right,1,0.6317,0,19,19,62,1,8,8,8 | 8,0,1.4111,1.9756,neutral,right,,,,,,stimulusFile/physical.xlsx,,,,,,,,,,,,,,,,,,,,,,,,,,,,,,,
,,,,,,,,,,,,,,,832,2022-01-13_11h32.29.331,multiplicationStroop,2021.2.3,Win32,60.12506013,,,,,left,1,0.5208,0,20,20,26,1,6,7,6 | 7,1,1.9756,1.4111,incongruent,left,,,,,,stimulusFile/physical.xlsx,,,,,,,,,,,,,,,,,,,,,,,,,,,,,,,
,,,,,,,,,,,,,,,832,2022-01-13_11h32.29.331,multiplicationStroop,2021.2.3,Win32,60.12506013,,,,,right,0,0.7554,0,21,21,71,1,9,9,9 | 9,0,1.4111,1.9756,neutral,left,,,,,,stimulusFile/physical.xlsx,,,,,,,,,,,,,,,,,,,,,,,,,,,,,,,
,,,,,,,,,,,,,,,832,2022-01-13_11h32.29.331,multiplicationStroop,2021.2.3,Win32,60.12506013,,,,,right,1,0.5736,0,22,22,45,1,7,2,7 | 2,5,1.4111,1.9756,incongruent,right,,,,,,stimulusFile/physical.xlsx,,,,,,,,,,,,,,,,,,,,,,,,,,,,,,,
,,,,,,,,,,,,,,,832,2022-01-13_11h32.29.331,multiplicationStroop,2021.2.3,Win32,60.12506013,,,,,left,1,0.5162,0,23,23,70,1,8,8,8 | 8,0,1.9756,1.4111,neutral,left,,,,,,stimulusFile/physical.xlsx,,,,,,,,,,,,,,,,,,,,,,,,,,,,,,,
,,,,,,,,,,,,,,,832,2022-01-13_11h32.29.331,multiplicationStroop,2021.2.3,Win32,60.12506013,,,,,left,1,0.5172,0,24,24,54,1,7,7,7 | 7,0,1.9756,1.4111,neutral,left,,,,,,stimulusFile/physical.xlsx,,,,,,,,,,,,,,,,,,,,,,,,,,,,,,,
,,,,,,,,,,,,,,,832,2022-01-13_11h32.29.331,multiplicationStroop,2021.2.3,Win32,60.12506013,,,,,left,1,0.5035,0,25,25,33,1,2,4,2 | 4,2,1.9756,1.4111,incongruent,left,,,,,,stimulusFile/physical.xlsx,,,,,,,,,,,,,,,,,,,,,,,,,,,,,,,
,,,,,,,,,,,,,,,832,2022-01-13_11h32.29.331,multiplicationStroop,2021.2.3,Win32,60.12506013,,,,,right,1,0.6399,0,26,26,36,1,3,1,3 | 1,2,1.4111,1.9756,incongruent,right,,,,,,stimulusFile/physical.xlsx,,,,,,,,,,,,,,,,,,,,,,,,,,,,,,,
,,,,,,,,,,,,,,,832,2022-01-13_11h32.29.331,multiplicationStroop,2021.2.3,Win32,60.12506013,,,,,right,1,0.5408,0,27,27,65,1,2,2,2 | 2,0,1.4111,1.9756,neutral,right,,,,,,stimulusFile/physical.xlsx,,,,,,,,,,,,,,,,,,,,,,,,,,,,,,,
,,,,,,,,,,,,,,,832,2022-01-13_11h32.29.331,multiplicationStroop,2021.2.3,Win32,60.12506013,,,,,right,1,0.6175,0,28,28,63,1,9,9,9 | 9,0,1.4111,1.9756,neutral,right,,,,,,stimulusFile/physical.xlsx,,,,,,,,,,,,,,,,,,,,,,,,,,,,,,,
,,,,,,,,,,,,,,,832,2022-01-13_11h32.29.331,multiplicationStroop,2021.2.3,Win32,60.12506013,,,,,right,1,0.5683,0,29,29,18,1,3,8,3 | 8,5,1.4111,1.9756,congruent,right,,,,,,stimulusFile/physical.xlsx,,,,,,,,,,,,,,,,,,,,,,,,,,,,,,,
,,,,,,,,,,,,,,,832,2022-01-13_11h32.29.331,multiplicationStroop,2021.2.3,Win32,60.12506013,,,,,left,1,0.6143,0,30,30,24,1,1,2,1 | 2,1,1.9756,1.4111,incongruent,left,,,,,,stimulusFile/physical.xlsx,,,,,,,,,,,,,,,,,,,,,,,,,,,,,,,
,,,,,,,,,,,,,,,832,2022-01-13_11h32.29.331,multiplicationStroop,2021.2.3,Win32,60.12506013,,,,,right,1,0.5826,0,31,31,30,1,7,6,7 | 6,1,1.4111,1.9756,incongruent,right,,,,,,stimulusFile/physical.xlsx,,,,,,,,,,,,,,,,,,,,,,,,,,,,,,,
,,,,,,,,,,,,,,,832,2022-01-13_11h32.29.331,multiplicationStroop,2021.2.3,Win32,60.12506013,,,,,left,1,0.5817,0,32,32,50,1,6,6,6 | 6,0,1.9756,1.4111,neutral,left,,,,,,stimulusFile/physical.xlsx,,,,,,,,,,,,,,,,,,,,,,,,,,,,,,,
,,,,,,,,,,,,,,,832,2022-01-13_11h32.29.331,multiplicationStroop,2021.2.3,Win32,60.12506013,,,,,right,1,0.5653,0,33,33,11,1,7,9,7 | 9,2,1.4111,1.9756,congruent,right,,,,,,stimulusFile/physical.xlsx,,,,,,,,,,,,,,,,,,,,,,,,,,,,,,,
,,,,,,,,,,,,,,,832,2022-01-13_11h32.29.331,multiplicationStroop,2021.2.3,Win32,60.12506013,,,,,left,1,0.6195,0,34,34,12,1,3,1,3 | 1,2,1.9756,1.4111,congruent,left,,,,,,stimulusFile/physical.xlsx,,,,,,,,,,,,,,,,,,,,,,,,,,,,,,,
,,,,,,,,,,,,,,,832,2022-01-13_11h32.29.331,multiplicationStroop,2021.2.3,Win32,60.12506013,,,,,left,1,0.6314,0,35,35,48,1,1,1,1 | 1,0,1.9756,1.4111,neutral,left,,,,,,stimulusFile/physical.xlsx,,,,,,,,,,,,,,,,,,,,,,,,,,,,,,,
,,,,,,,,,,,,,,,832,2022-01-13_11h32.29.331,multiplicationStroop,2021.2.3,Win32,60.12506013,,,,,right,1,0.5815,0,36,36,1,1,3,4,3 | 4,1,1.4111,1.9756,congruent,right,,,,,,stimulusFile/physical.xlsx,,,,,,,,,,,,,,,,,,,,,,,,,,,,,,,
,,,,,,,,,,,,,,,832,2022-01-13_11h32.29.331,multiplicationStroop,2021.2.3,Win32,60.12506013,,,,,right,1,0.6315,0,37,37,29,1,4,3,4 | 3,1,1.4111,1.9756,incongruent,right,,,,,,stimulusFile/physical.xlsx,,,,,,,,,,,,,,,,,,,,,,,,,,,,,,,
,,,,,,,,,,,,,,,832,2022-01-13_11h32.29.331,multiplicationStroop,2021.2.3,Win32,60.12506013,,,,,right,1,0.6386,0,38,38,39,1,9,7,9 | 7,2,1.4111,1.9756,incongruent,right,,,,,,stimulusFile/physical.xlsx,,,,,,,,,,,,,,,,,,,,,,,,,,,,,,,
,,,,,,,,,,,,,,,832,2022-01-13_11h32.29.331,multiplicationStroop,2021.2.3,Win32,60.12506013,,,,,left,1,0.5829,0,39,39,20,1,6,1,6 | 1,5,1.9756,1.4111,congruent,left,,,,,,stimulusFile/physical.xlsx,,,,,,,,,,,,,,,,,,,,,,,,,,,,,,,
,,,,,,,,,,,,,,,832,2022-01-13_11h32.29.331,multiplicationStroop,2021.2.3,Win32,60.12506013,,,,,left,1,0.5749,0,40,40,68,1,6,6,6 | 6,0,1.9756,1.4111,neutral,left,,,,,,stimulusFile/physical.xlsx,,,,,,,,,,,,,,,,,,,,,,,,,,,,,,,
,,,,,,,,,,,,,,,832,2022-01-13_11h32.29.331,multiplicationStroop,2021.2.3,Win32,60.12506013,,,,,right,1,0.5315,0,41,41,60,1,3,3,3 | 3,0,1.4111,1.9756,neutral,right,,,,,,stimulusFile/physical.xlsx,,,,,,,,,,,,,,,,,,,,,,,,,,,,,,,
,,,,,,,,,,,,,,,832,2022-01-13_11h32.29.331,multiplicationStroop,2021.2.3,Win32,60.12506013,,,,,right,1,0.5819,0,42,42,61,1,4,4,4 | 4,0,1.4111,1.9756,neutral,right,,,,,,stimulusFile/physical.xlsx,,,,,,,,,,,,,,,,,,,,,,,,,,,,,,,
,,,,,,,,,,,,,,,832,2022-01-13_11h32.29.331,multiplicationStroop,2021.2.3,Win32,60.12506013,,,,,right,1,0.4583,0,43,43,46,1,8,3,8 | 3,5,1.4111,1.9756,incongruent,right,,,,,,stimulusFile/physical.xlsx,,,,,,,,,,,,,,,,,,,,,,,,,,,,,,,
,,,,,,,,,,,,,,,832,2022-01-13_11h32.29.331,multiplicationStroop,2021.2.3,Win32,60.12506013,,,,,left,1,0.466,0,44,44,27,1,8,9,8 | 9,1,1.9756,1.4111,incongruent,left,,,,,,stimulusFile/physical.xlsx,,,,,,,,,,,,,,,,,,,,,,,,,,,,,,,
,,,,,,,,,,,,,,,832,2022-01-13_11h32.29.331,multiplicationStroop,2021.2.3,Win32,60.12506013,,,,,right,1,0.4851,0,45,45,2,1,6,7,6 | 7,1,1.4111,1.9756,congruent,right,,,,,,stimulusFile/physical.xlsx,,,,,,,,,,,,,,,,,,,,,,,,,,,,,,,
,,,,,,,,,,,,,,,832,2022-01-13_11h32.29.331,multiplicationStroop,2021.2.3,Win32,60.12506013,,,,,left,0,0.5077,0,46,46,64,1,1,1,1 | 1,0,1.9756,1.4111,neutral,right,,,,,,stimulusFile/physical.xlsx,,,,,,,,,,,,,,,,,,,,,,,,,,,,,,,
,,,,,,,,,,,,,,,832,2022-01-13_11h32.29.331,multiplicationStroop,2021.2.3,Win32,60.12506013,,,,,left,1,0.5718,0,47,47,42,1,3,8,3 | 8,5,1.9756,1.4111,incongruent,left,,,,,,stimulusFile/physical.xlsx,,,,,,,,,,,,,,,,,,,,,,,,,,,,,,,
,,,,,,,,,,,,,,,832,2022-01-13_11h32.29.331,multiplicationStroop,2021.2.3,Win32,60.12506013,,,,,left,1,0.4829,0,48,48,5,1,4,3,4 | 3,1,1.9756,1.4111,congruent,left,,,,,,stimulusFile/physical.xlsx,,,,,,,,,,,,,,,,,,,,,,,,,,,,,,,
,,,,,,,,,,,,,,,832,2022-01-13_11h32.29.331,multiplicationStroop,2021.2.3,Win32,60.12506013,,,,,right,1,0.499,0,49,49,58,1,6,6,6 | 6,0,1.4111,1.9756,neutral,right,,,,,,stimulusFile/physical.xlsx,,,,,,,,,,,,,,,,,,,,,,,,,,,,,,,
,,,,,,,,,,,,,,,832,2022-01-13_11h32.29.331,multiplicationStroop,2021.2.3,Win32,60.12506013,,,,,left,1,0.448,0,50,50,49,1,3,3,3 | 3,0,1.9756,1.4111,neutral,left,,,,,,stimulusFile/physical.xlsx,,,,,,,,,,,,,,,,,,,,,,,,,,,,,,,
,,,,,,,,,,,,,,,832,2022-01-13_11h32.29.331,multiplicationStroop,2021.2.3,Win32,60.12506013,,,,,right,1,0.6185,0,51,51,28,1,2,1,2 | 1,1,1.4111,1.9756,incongruent,right,,,,,,stimulusFile/physical.xlsx,,,,,,,,,,,,,,,,,,,,,,,,,,,,,,,
,,,,,,,,,,,,,,,832,2022-01-13_11h32.29.331,multiplicationStroop,2021.2.3,Win32,60.12506013,,,,,right,1,0.6242,0,52,52,44,1,6,1,6 | 1,5,1.4111,1.9756,incongruent,right,,,,,,stimulusFile/physical.xlsx,,,,,,,,,,,,,,,,,,,,,,,,,,,,,,,
,,,,,,,,,,,,,,,832,2022-01-13_11h32.29.331,multiplicationStroop,2021.2.3,Win32,60.12506013,,,,,right,1,0.4731,0,53,53,17,1,2,7,2 | 7,5,1.4111,1.9756,congruent,right,,,,,,stimulusFile/physical.xlsx,,,,,,,,,,,,,,,,,,,,,,,,,,,,,,,
,,,,,,,,,,,,,,,832,2022-01-13_11h32.29.331,multiplicationStroop,2021.2.3,Win32,60.12506013,,,,,right,1,0.503,0,54,54,38,1,8,6,8 | 6,2,1.4111,1.9756,incongruent,right,,,,,,stimulusFile/physical.xlsx,,,,,,,,,,,,,,,,,,,,,,,,,,,,,,,
,,,,,,,,,,,,,,,832,2022-01-13_11h32.29.331,multiplicationStroop,2021.2.3,Win32,60.12506013,,,,,left,1,0.5314,0,55,55,7,1,9,8,9 | 8,1,1.9756,1.4111,congruent,left,,,,,,stimulusFile/physical.xlsx,,,,,,,,,,,,,,,,,,,,,,,,,,,,,,,
,,,,,,,,,,,,,,,832,2022-01-13_11h32.29.331,multiplicationStroop,2021.2.3,Win32,60.12506013,,,,,right,1,0.5223,0,56,56,16,1,1,6,1 | 6,5,1.4111,1.9756,congruent,right,,,,,,stimulusFile/physical.xlsx,,,,,,,,,,,,,,,,,,,,,,,,,,,,,,,
,,,,,,,,,,,,,,,832,2022-01-13_11h32.29.331,multiplicationStroop,2021.2.3,Win32,60.12506013,,,,,left,1,0.4321,0,57,57,14,1,8,6,8 | 6,2,1.9756,1.4111,congruent,left,,,,,,stimulusFile/physical.xlsx,,,,,,,,,,,,,,,,,,,,,,,,,,,,,,,
,,,,,,,,,,,,,,,832,2022-01-13_11h32.29.331,multiplicationStroop,2021.2.3,Win32,60.12506013,,,,,right,1,0.6048,0,58,58,0,1,1,2,1 | 2,1,1.4111,1.9756,congruent,right,,,,,,stimulusFile/physical.xlsx,,,,,,,,,,,,,,,,,,,,,,,,,,,,,,,
,,,,,,,,,,,,,,,832,2022-01-13_11h32.29.331,multiplicationStroop,2021.2.3,Win32,60.12506013,,,,,left,1,0.3986,0,59,59,6,1,7,6,7 | 6,1,1.9756,1.4111,congruent,left,,,,,,stimulusFile/physical.xlsx,,,,,,,,,,,,,,,,,,,,,,,,,,,,,,,
,,,,,,,,,,,,,,,832,2022-01-13_11h32.29.331,multiplicationStroop,2021.2.3,Win32,60.12506013,,,,,right,1,0.5527,0,60,60,56,1,1,1,1 | 1,0,1.4111,1.9756,neutral,right,,,,,,stimulusFile/physical.xlsx,,,,,,,,,,,,,,,,,,,,,,,,,,,,,,,
,,,,,,,,,,,,,,,832,2022-01-13_11h32.29.331,multiplicationStroop,2021.2.3,Win32,60.12506013,,,,,left,1,0.4408,0,61,61,23,1,9,4,9 | 4,5,1.9756,1.4111,congruent,left,,,,,,stimulusFile/physical.xlsx,,,,,,,,,,,,,,,,,,,,,,,,,,,,,,,
,,,,,,,,,,,,,,,832,2022-01-13_11h32.29.331,multiplicationStroop,2021.2.3,Win32,60.12506013,,,,,left,1,0.5533,0,62,62,53,1,4,4,4 | 4,0,1.9756,1.4111,neutral,left,,,,,,stimulusFile/physical.xlsx,,,,,,,,,,,,,,,,,,,,,,,,,,,,,,,
,,,,,,,,,,,,,,,832,2022-01-13_11h32.29.331,multiplicationStroop,2021.2.3,Win32,60.12506013,,,,,left,1,0.4886,0,63,63,35,1,7,9,7 | 9,2,1.9756,1.4111,incongruent,left,,,,,,stimulusFile/physical.xlsx,,,,,,,,,,,,,,,,,,,,,,,,,,,,,,,
,,,,,,,,,,,,,,,832,2022-01-13_11h32.29.331,multiplicationStroop,2021.2.3,Win32,60.12506013,,,,,left,1,0.5816,0,64,64,32,1,1,3,1 | 3,2,1.9756,1.4111,incongruent,left,,,,,,stimulusFile/physical.xlsx,,,,,,,,,,,,,,,,,,,,,,,,,,,,,,,
,,,,,,,,,,,,,,,832,2022-01-13_11h32.29.331,multiplicationStroop,2021.2.3,Win32,60.12506013,,,,,right,0,0.5234,0,65,65,69,1,7,7,7 | 7,0,1.4111,1.9756,neutral,left,,,,,,stimulusFile/physical.xlsx,,,,,,,,,,,,,,,,,,,,,,,,,,,,,,,
,,,,,,,,,,,,,,,832,2022-01-13_11h32.29.331,multiplicationStroop,2021.2.3,Win32,60.12506013,,,,,left,1,0.6406,0,66,66,43,1,4,9,4 | 9,5,1.9756,1.4111,incongruent,left,,,,,,stimulusFile/physical.xlsx,,,,,,,,,,,,,,,,,,,,,,,,,,,,,,,
,,,,,,,,,,,,,,,832,2022-01-13_11h32.29.331,multiplicationStroop,2021.2.3,Win32,60.12506013,,,,,left,1,0.5369,0,67,67,22,1,8,3,8 | 3,5,1.9756,1.4111,congruent,left,,,,,,stimulusFile/physical.xlsx,,,,,,,,,,,,,,,,,,,,,,,,,,,,,,,
,,,,,,,,,,,,,,,832,2022-01-13_11h32.29.331,multiplicationStroop,2021.2.3,Win32,60.12506013,,,,,left,0,0.5202,0,68,68,66,1,3,3,3 | 3,0,1.9756,1.4111,neutral,right,,,,,,stimulusFile/physical.xlsx,,,,,,,,,,,,,,,,,,,,,,,,,,,,,,,
,,,,,,,,,,,,,,,832,2022-01-13_11h32.29.331,multiplicationStroop,2021.2.3,Win32,60.12506013,,,,,left,1,0.7148,0,69,69,34,1,6,8,6 | 8,2,1.9756,1.4111,incongruent,left,,,,,,stimulusFile/physical.xlsx,,,,,,,,,,,,,,,,,,,,,,,,,,,,,,,
,,,,,,,,,,,,,,,832,2022-01-13_11h32.29.331,multiplicationStroop,2021.2.3,Win32,60.12506013,,,,,right,1,0.4569,0,70,70,8,1,1,3,1 | 3,2,1.4111,1.9756,congruent,right,,,,,,stimulusFile/physical.xlsx,,,,,,,,,,,,,,,,,,,,,,,,,,,,,,,
,,,,,,,,,,,,,,,832,2022-01-13_11h32.29.331,multiplicationStroop,2021.2.3,Win32,60.12506013,,,,,right,1,0.4988,0,71,71,10,1,6,8,6 | 8,2,1.4111,1.9756,congruent,right,,,,,,stimulusFile/physical.xlsx,,,,,,,,,,,,,,,,,,,,,,,,,,,,,,,
,,,,,,,,,,,,,,,832,2022-01-13_11h32.29.331,multiplicationStroop,2021.2.3,Win32,60.12506013,,,,,,,,,,,,,,,,,,,,,0,1,1,1,1,stimulusFile/physical.xlsx,PHYSICALLY larger.,images/physicallyLarger.png,,,,,,,,,,,,,,,,,,,,,,,,,,,,,
,,,,,,,,,,,,,,,832,2022-01-13_11h32.29.331,multiplicationStroop,2021.2.3,Win32,60.12506013,,,,,,,,,,,,,,,,,,,,,,,,,,,,,space,1.9513,space,1.255,12,3.4549,1,0,0,0,16,1,4,×,3,4 × 3,congruent,largerFirst,2,1,12,,,,,,,,
,,,,,,,,,,,,,,,832,2022-01-13_11h32.29.331,multiplicationStroop,2021.2.3,Win32,60.12506013,,,,,,,,,,,,,,,,,,,,,,,,,,,,,,,,,64,2.5249,1,0,1,1,34,1,8,×,8,8 × 8,neutral,tie,1,2,64,,,,,,,,
,,,,,,,,,,,,,,,832,2022-01-13_11h32.29.331,multiplicationStroop,2021.2.3,Win32,60.12506013,,,,,,,,,,,,,,,,,,,,,,,,,,,,,,,,,25,1.6158,1,0,2,2,31,1,5,×,5,5 × 5,neutral,tie,1,2,25,,,,,,,,
,,,,,,,,,,,,,,,832,2022-01-13_11h32.29.331,multiplicationStroop,2021.2.3,Win32,60.12506013,,,,,,,,,,,,,,,,,,,,,,,,,,,,,,,,,18,1.7323,1,0,3,3,8,1,2,×,9,2 × 9,congruent,smallerFirst,1,2,18,,,,,,,,
,,,,,,,,,,,,,,,832,2022-01-13_11h32.29.331,multiplicationStroop,2021.2.3,Win32,60.12506013,,,,,,,,,,,,,,,,,,,,,,,,,,,,,,,,,24,1.7656,1,0,4,4,11,1,4,×,6,4 × 6,congruent,smallerFirst,1,2,24,,,,,,,,
,,,,,,,,,,,,,,,832,2022-01-13_11h32.29.331,multiplicationStroop,2021.2.3,Win32,60.12506013,,,,,,,,,,,,,,,,,,,,,,,,,,,,,,,,,48,3.599,1,0,5,5,4,1,6,×,8,6 × 8,congruent,smallerFirst,1,2,48,,,,,,,,
,,,,,,,,,,,,,,,832,2022-01-13_11h32.29.331,multiplicationStroop,2021.2.3,Win32,60.12506013,,,,,,,,,,,,,,,,,,,,,,,,,,,,,,,,,15,1.524,1,0,6,6,18,1,5,×,3,5 × 3,congruent,largerFirst,2,1,15,,,,,,,,
,,,,,,,,,,,,,,,832,2022-01-13_11h32.29.331,multiplicationStroop,2021.2.3,Win32,60.12506013,,,,,,,,,,,,,,,,,,,,,,,,,,,,,,,,,12,1.6158,1,0,7,7,5,1,2,×,6,2 × 6,congruent,smallerFirst,1,2,12,,,,,,,,
,,,,,,,,,,,,,,,832,2022-01-13_11h32.29.331,multiplicationStroop,2021.2.3,Win32,60.12506013,,,,,,,,,,,,,,,,,,,,,,,,,,,,,,,,,40,2.5825,1,0,8,8,20,1,8,×,5,8 × 5,congruent,largerFirst,2,1,40,,,,,,,,
,,,,,,,,,,,,,,,832,2022-01-13_11h32.29.331,multiplicationStroop,2021.2.3,Win32,60.12506013,,,,,,,,,,,,,,,,,,,,,,,,,,,,,,,,,28,2.3155,1,0,9,9,13,1,4,×,7,4 × 7,congruent,smallerFirst,1,2,28,,,,,,,,
,,,,,,,,,,,,,,,832,2022-01-13_11h32.29.331,multiplicationStroop,2021.2.3,Win32,60.12506013,,,,,,,,,,,,,,,,,,,,,,,,,,,,,,,,,10,1.6915,1,0,10,10,10,1,2,×,5,2 × 5,congruent,smallerFirst,1,2,10,,,,,,,,
,,,,,,,,,,,,,,,832,2022-01-13_11h32.29.331,multiplicationStroop,2021.2.3,Win32,60.12506013,,,,,,,,,,,,,,,,,,,,,,,,,,,,,,,,,36,2.0662,1,0,11,11,32,1,6,×,6,6 × 6,neutral,tie,1,2,36,,,,,,,,
,,,,,,,,,,,,,,,832,2022-01-13_11h32.29.331,multiplicationStroop,2021.2.3,Win32,60.12506013,,,,,,,,,,,,,,,,,,,,,,,,,,,,,,,,,81,2.8989,1,0,12,12,35,1,9,×,9,9 × 9,neutral,tie,1,2,81,,,,,,,,
,,,,,,,,,,,,,,,832,2022-01-13_11h32.29.331,multiplicationStroop,2021.2.3,Win32,60.12506013,,,,,,,,,,,,,,,,,,,,,,,,,,,,,,,,,63,3.9248,1,0,13,13,7,1,7,×,9,7 × 9,congruent,smallerFirst,1,2,63,,,,,,,,
,,,,,,,,,,,,,,,832,2022-01-13_11h32.29.331,multiplicationStroop,2021.2.3,Win32,60.12506013,,,,,,,,,,,,,,,,,,,,,,,,,,,,,,,,,30,2.9081,1,0,14,14,1,1,5,×,6,5 × 6,congruent,smallerFirst,1,2,30,,,,,,,,
,,,,,,,,,,,,,,,832,2022-01-13_11h32.29.331,multiplicationStroop,2021.2.3,Win32,60.12506013,,,,,,,,,,,,,,,,,,,,,,,,,,,,,,,,,21,1.5657,1,0,15,15,2,1,3,×,7,3 × 7,congruent,smallerFirst,1,2,21,,,,,,,,
,,,,,,,,,,,,,,,832,2022-01-13_11h32.29.331,multiplicationStroop,2021.2.3,Win32,60.12506013,,,,,,,,,,,,,,,,,,,,,,,,,,,,,,,,,27,1.7825,1,0,16,16,12,1,3,×,9,3 × 9,congruent,smallerFirst,1,2,27,,,,,,,,
,,,,,,,,,,,,,,,832,2022-01-13_11h32.29.331,multiplicationStroop,2021.2.3,Win32,60.12506013,,,,,,,,,,,,,,,,,,,,,,,,,,,,,,,,,42,2.5659,1,0,17,17,17,1,7,×,6,7 × 6,congruent,largerFirst,2,1,42,,,,,,,,
,,,,,,,,,,,,,,,832,2022-01-13_11h32.29.331,multiplicationStroop,2021.2.3,Win32,60.12506013,,,,,,,,,,,,,,,,,,,,,,,,,,,,,,,,,9,1.5493,1,0,18,18,29,1,3,×,3,3 × 3,neutral,tie,1,2,9,,,,,,,,
,,,,,,,,,,,,,,,832,2022-01-13_11h32.29.331,multiplicationStroop,2021.2.3,Win32,60.12506013,,,,,,,,,,,,,,,,,,,,,,,,,,,,,,,,,14,1.516,1,0,19,19,0,1,2,×,7,2 × 7,congruent,smallerFirst,1,2,14,,,,,,,,
,,,,,,,,,,,,,,,832,2022-01-13_11h32.29.331,multiplicationStroop,2021.2.3,Win32,60.12506013,,,,,,,,,,,,,,,,,,,,,,,,,,,,,,,,,16,1.6323,1,0,20,20,19,1,8,×,2,8 × 2,congruent,largerFirst,2,1,16,,,,,,,,
,,,,,,,,,,,,,,,832,2022-01-13_11h32.29.331,multiplicationStroop,2021.2.3,Win32,60.12506013,,,,,,,,,,,,,,,,,,,,,,,,,,,,,,,,,36,4.916,1,0,21,21,14,1,9,×,4,9 × 4,congruent,largerFirst,2,1,36,,,,,,,,
,,,,,,,,,,,,,,,832,2022-01-13_11h32.29.331,multiplicationStroop,2021.2.3,Win32,60.12506013,,,,,,,,,,,,,,,,,,,,,,,,,,,,,,,,,45,2.2082,1,0,22,22,9,1,5,×,9,5 × 9,congruent,smallerFirst,1,2,45,,,,,,,,
,,,,,,,,,,,,,,,832,2022-01-13_11h32.29.331,multiplicationStroop,2021.2.3,Win32,60.12506013,,,,,,,,,,,,,,,,,,,,,,,,,,,,,,,,,32,6.3153,1,0,23,23,6,1,4,×,8,4 × 8,congruent,smallerFirst,1,2,32,,,,,,,,
,,,,,,,,,,,,,,,832,2022-01-13_11h32.29.331,multiplicationStroop,2021.2.3,Win32,60.12506013,,,,,,,,,,,,,,,,,,,,,,,,,,,,,,,,,6,1.6415,1,0,24,24,27,1,3,×,2,3 × 2,congruent,largerFirst,2,1,6,,,,,,,,
,,,,,,,,,,,,,,,832,2022-01-13_11h32.29.331,multiplicationStroop,2021.2.3,Win32,60.12506013,,,,,,,,,,,,,,,,,,,,,,,,,,,,,,,,,18,2.7823,1,0,25,25,25,1,6,×,3,6 × 3,congruent,largerFirst,2,1,18,,,,,,,,
,,,,,,,,,,,,,,,832,2022-01-13_11h32.29.331,multiplicationStroop,2021.2.3,Win32,60.12506013,,,,,,,,,,,,,,,,,,,,,,,,,,,,,,,,,8,1.7753,1,0,26,26,23,1,4,×,2,4 × 2,congruent,largerFirst,2,1,8,,,,,,,,
,,,,,,,,,,,,,,,832,2022-01-13_11h32.29.331,multiplicationStroop,2021.2.3,Win32,60.12506013,,,,,,,,,,,,,,,,,,,,,,,,,,,,,,,,,20,1.6822,1,0,27,27,21,1,5,×,4,5 × 4,congruent,largerFirst,2,1,20,,,,,,,,
,,,,,,,,,,,,,,,832,2022-01-13_11h32.29.331,multiplicationStroop,2021.2.3,Win32,60.12506013,,,,,,,,,,,,,,,,,,,,,,,,,,,,,,,,,4,1.3162,1,0,28,28,28,1,2,×,2,2 × 2,neutral,tie,1,2,4,,,,,,,,
,,,,,,,,,,,,,,,832,2022-01-13_11h32.29.331,multiplicationStroop,2021.2.3,Win32,60.12506013,,,,,,,,,,,,,,,,,,,,,,,,,,,,,,,,,49,1.9658,1,0,29,29,33,1,7,×,7,7 × 7,neutral,tie,1,2,49,,,,,,,,
,,,,,,,,,,,,,,,832,2022-01-13_11h32.29.331,multiplicationStroop,2021.2.3,Win32,60.12506013,,,,,,,,,,,,,,,,,,,,,,,,,,,,,,,,,16,2.5991,1,0,30,30,30,1,4,×,4,4 × 4,neutral,tie,1,2,16,,,,,,,,
,,,,,,,,,,,,,,,832,2022-01-13_11h32.29.331,multiplicationStroop,2021.2.3,Win32,60.12506013,,,,,,,,,,,,,,,,,,,,,,,,,,,,,,,,,72,12.098,1,0,31,31,3,1,8,×,9,8 × 9,congruent,smallerFirst,1,2,72,,,,,,,,
,,,,,,,,,,,,,,,832,2022-01-13_11h32.29.331,multiplicationStroop,2021.2.3,Win32,60.12506013,,,,,,,,,,,,,,,,,,,,,,,,,,,,,,,,,54,2.3907,1,0,32,32,26,1,9,×,6,9 × 6,congruent,largerFirst,2,1,54,,,,,,,,
,,,,,,,,,,,,,,,832,2022-01-13_11h32.29.331,multiplicationStroop,2021.2.3,Win32,60.12506013,,,,,,,,,,,,,,,,,,,,,,,,,,,,,,,,,35,1.7658,1,0,33,33,15,1,7,×,5,7 × 5,congruent,largerFirst,2,1,35,,,,,,,,
,,,,,,,,,,,,,,,832,2022-01-13_11h32.29.331,multiplicationStroop,2021.2.3,Win32,60.12506013,,,,,,,,,,,,,,,,,,,,,,,,,,,,,,,,,24,1.5993,1,0,34,34,24,1,8,×,3,8 × 3,congruent,largerFirst,2,1,24,,,,,,,,
,,,,,,,,,,,,,,,832,2022-01-13_11h32.29.331,multiplicationStroop,2021.2.3,Win32,60.12506013,,,,,,,,,,,,,,,,,,,,,,,,,,,,,,,,,56,4.7653,1,0,35,35,22,1,8,×,7,8 × 7,congruent,largerFirst,2,1,56,,,,,,,,
,,,,,,,,,,,,,,,832,2022-01-13_11h32.29.331,multiplicationStroop,2021.2.3,Win32,60.12506013,,,,,,,,,,,,,,,,,,,,,,,,,,,,,,,,,,,,,,,,,,,,,,,,,,0,0,0,3,1,stimulusFile/mult_blk4_congruent.xlsx,,
,,,,,,,,,,,,,,,832,2022-01-13_11h32.29.331,multiplicationStroop,2021.2.3,Win32,60.12506013,,,,,,,,,,,,,,,,,,,,,,,,,,,,,,,space,1.4931,21,1.5047,1,0,0,0,8,1,3,×,7,3 × 7,neutral,smallerFirst,1.5,1.5,21,,,,,,,,
,,,,,,,,,,,,,,,832,2022-01-13_11h32.29.331,multiplicationStroop,2021.2.3,Win32,60.12506013,,,,,,,,,,,,,,,,,,,,,,,,,,,,,,,,,64,1.8329,1,0,1,1,34,1,8,×,8,8 × 8,neutral,tie,1.5,1.5,64,,,,,,,,
,,,,,,,,,,,,,,,832,2022-01-13_11h32.29.331,multiplicationStroop,2021.2.3,Win32,60.12506013,,,,,,,,,,,,,,,,,,,,,,,,,,,,,,,,,12,1.3492,1,0,2,2,25,1,6,×,2,6 × 2,neutral,largerFirst,1.5,1.5,12,,,,,,,,
,,,,,,,,,,,,,,,832,2022-01-13_11h32.29.331,multiplicationStroop,2021.2.3,Win32,60.12506013,,,,,,,,,,,,,,,,,,,,,,,,,,,,,,,,,30,1.7323,1,0,3,3,19,1,6,×,5,6 × 5,neutral,largerFirst,1.5,1.5,30,,,,,,,,
,,,,,,,,,,,,,,,832,2022-01-13_11h32.29.331,multiplicationStroop,2021.2.3,Win32,60.12506013,,,,,,,,,,,,,,,,,,,,,,,,,,,,,,,,,9,1.4496,1,0,4,4,29,1,3,×,3,3 × 3,neutral,tie,1.5,1.5,9,,,,,,,,
,,,,,,,,,,,,,,,832,2022-01-13_11h32.29.331,multiplicationStroop,2021.2.3,Win32,60.12506013,,,,,,,,,,,,,,,,,,,,,,,,,,,,,,,,,24,1.6826,1,0,5,5,2,1,4,×,6,4 × 6,neutral,smallerFirst,1.5,1.5,24,,,,,,,,
,,,,,,,,,,,,,,,832,2022-01-13_11h32.29.331,multiplicationStroop,2021.2.3,Win32,60.12506013,,,,,,,,,,,,,,,,,,,,,,,,,,,,,,,,,35,1.6825,1,0,6,6,1,1,5,×,7,5 × 7,neutral,smallerFirst,1.5,1.5,35,,,,,,,,
,,,,,,,,,,,,,,,832,2022-01-13_11h32.29.331,multiplicationStroop,2021.2.3,Win32,60.12506013,,,,,,,,,,,,,,,,,,,,,,,,,,,,,,,,,36,1.5158,1,0,7,7,32,1,6,×,6,6 × 6,neutral,tie,1.5,1.5,36,,,,,,,,
,,,,,,,,,,,,,,,832,2022-01-13_11h32.29.331,multiplicationStroop,2021.2.3,Win32,60.12506013,,,,,,,,,,,,,,,,,,,,,,,,,,,,,,,,,32,3.6155,1,0,8,8,23,1,8,×,4,8 × 4,neutral,largerFirst,1.5,1.5,32,,,,,,,,
,,,,,,,,,,,,,,,832,2022-01-13_11h32.29.331,multiplicationStroop,2021.2.3,Win32,60.12506013,,,,,,,,,,,,,,,,,,,,,,,,,,,,,,,,,42,3.2414,1,0,9,9,6,1,6,×,7,6 × 7,neutral,smallerFirst,1.5,1.5,42,,,,,,,,
,,,,,,,,,,,,,,,832,2022-01-13_11h32.29.331,multiplicationStroop,2021.2.3,Win32,60.12506013,,,,,,,,,,,,,,,,,,,,,,,,,,,,,,,,,12,1.5327,1,0,10,10,21,1,4,×,3,4 × 3,neutral,largerFirst,1.5,1.5,12,,,,,,,,
,,,,,,,,,,,,,,,832,2022-01-13_11h32.29.331,multiplicationStroop,2021.2.3,Win32,60.12506013,,,,,,,,,,,,,,,,,,,,,,,,,,,,,,,,,8,1.6158,1,0,11,11,3,1,2,×,4,2 × 4,neutral,smallerFirst,1.5,1.5,8,,,,,,,,
,,,,,,,,,,,,,,,832,2022-01-13_11h32.29.331,multiplicationStroop,2021.2.3,Win32,60.12506013,,,,,,,,,,,,,,,,,,,,,,,,,,,,,,,,,24,1.7323,1,0,12,12,22,1,8,×,3,8 × 3,neutral,largerFirst,1.5,1.5,24,,,,,,,,
,,,,,,,,,,,,,,,832,2022-01-13_11h32.29.331,multiplicationStroop,2021.2.3,Win32,60.12506013,,,,,,,,,,,,,,,,,,,,,,,,,,,,,,,,,27,1.7995,1,0,13,13,14,1,9,×,3,9 × 3,neutral,largerFirst,1.5,1.5,27,,,,,,,,
,,,,,,,,,,,,,,,832,2022-01-13_11h32.29.331,multiplicationStroop,2021.2.3,Win32,60.12506013,,,,,,,,,,,,,,,,,,,,,,,,,,,,,,,,,49,1.9823,1,0,14,14,33,1,7,×,7,7 × 7,neutral,tie,1.5,1.5,49,,,,,,,,
,,,,,,,,,,,,,,,832,2022-01-13_11h32.29.331,multiplicationStroop,2021.2.3,Win32,60.12506013,,,,,,,,,,,,,,,,,,,,,,,,,,,,,,,,,28,3.1317,1,0,15,15,17,1,7,×,4,7 × 4,neutral,largerFirst,1.5,1.5,28,,,,,,,,
,,,,,,,,,,,,,,,832,2022-01-13_11h32.29.331,multiplicationStroop,2021.2.3,Win32,60.12506013,,,,,,,,,,,,,,,,,,,,,,,,,,,,,,,,,16,2.2489,1,0,16,16,30,1,4,×,4,4 × 4,neutral,tie,1.5,1.5,16,,,,,,,,
,,,,,,,,,,,,,,,832,2022-01-13_11h32.29.331,multiplicationStroop,2021.2.3,Win32,60.12506013,,,,,,,,,,,,,,,,,,,,,,,,,,,,,,,,,45,2.2329,1,0,17,17,10,1,5,×,9,5 × 9,neutral,smallerFirst,1.5,1.5,45,,,,,,,,
,,,,,,,,,,,,,,,832,2022-01-13_11h32.29.331,multiplicationStroop,2021.2.3,Win32,60.12506013,,,,,,,,,,,,,,,,,,,,,,,,,,,,,,,,,63,2.7161,1,0,18,18,12,1,7,×,9,7 × 9,neutral,smallerFirst,1.5,1.5,63,,,,,,,,
,,,,,,,,,,,,,,,832,2022-01-13_11h32.29.331,multiplicationStroop,2021.2.3,Win32,60.12506013,,,,,,,,,,,,,,,,,,,,,,,,,,,,,,,,,20,1.6583,1,0,19,19,20,1,5,×,4,5 × 4,neutral,largerFirst,1.5,1.5,20,,,,,,,,
,,,,,,,,,,,,,,,832,2022-01-13_11h32.29.331,multiplicationStroop,2021.2.3,Win32,60.12506013,,,,,,,,,,,,,,,,,,,,,,,,,,,,,,,,,36,3.5489,1,0,20,20,27,1,9,×,4,9 × 4,neutral,largerFirst,1.5,1.5,36,,,,,,,,
,,,,,,,,,,,,,,,832,2022-01-13_11h32.29.331,multiplicationStroop,2021.2.3,Win32,60.12506013,,,,,,,,,,,,,,,,,,,,,,,,,,,,,,,,,15,1.4662,1,0,21,21,5,1,3,×,5,3 × 5,neutral,smallerFirst,1.5,1.5,15,,,,,,,,
,,,,,,,,,,,,,,,832,2022-01-13_11h32.29.331,multiplicationStroop,2021.2.3,Win32,60.12506013,,,,,,,,,,,,,,,,,,,,,,,,,,,,,,,,,48,4.7987,1,0,22,22,15,1,8,×,6,8 × 6,neutral,largerFirst,1.5,1.5,48,,,,,,,,
,,,,,,,,,,,,,,,832,2022-01-13_11h32.29.331,multiplicationStroop,2021.2.3,Win32,60.12506013,,,,,,,,,,,,,,,,,,,,,,,,,,,,,,,,,14,2.7914,1,0,23,23,16,1,7,×,2,7 × 2,neutral,largerFirst,1.5,1.5,14,,,,,,,,
,,,,,,,,,,,,,,,832,2022-01-13_11h32.29.331,multiplicationStroop,2021.2.3,Win32,60.12506013,,,,,,,,,,,,,,,,,,,,,,,,,,,,,,,,,18,1.6659,1,0,24,24,18,1,9,×,2,9 × 2,neutral,largerFirst,1.5,1.5,18,,,,,,,,
,,,,,,,,,,,,,,,832,2022-01-13_11h32.29.331,multiplicationStroop,2021.2.3,Win32,60.12506013,,,,,,,,,,,,,,,,,,,,,,,,,,,,,,,,,25,2.2825,1,0,25,25,31,1,5,×,5,5 × 5,neutral,tie,1.5,1.5,25,,,,,,,,
,,,,,,,,,,,,,,,832,2022-01-13_11h32.29.331,multiplicationStroop,2021.2.3,Win32,60.12506013,,,,,,,,,,,,,,,,,,,,,,,,,,,,,,,,,56,3.682,1,0,26,26,9,1,7,×,8,7 × 8,neutral,smallerFirst,1.5,1.5,56,,,,,,,,
,,,,,,,,,,,,,,,832,2022-01-13_11h32.29.331,multiplicationStroop,2021.2.3,Win32,60.12506013,,,,,,,,,,,,,,,,,,,,,,,,,,,,,,,,,18,1.8088,1,0,27,27,0,1,3,×,6,3 × 6,neutral,smallerFirst,1.5,1.5,18,,,,,,,,
,,,,,,,,,,,,,,,832,2022-01-13_11h32.29.331,multiplicationStroop,2021.2.3,Win32,60.12506013,,,,,,,,,,,,,,,,,,,,,,,,,,,,,,,,,6,1.6488,1,0,28,28,26,1,3,×,2,3 × 2,neutral,largerFirst,1.5,1.5,6,,,,,,,,
,,,,,,,,,,,,,,,832,2022-01-13_11h32.29.331,multiplicationStroop,2021.2.3,Win32,60.12506013,,,,,,,,,,,,,,,,,,,,,,,,,,,,,,,,,40,1.7494,1,0,29,29,24,1,8,×,5,8 × 5,neutral,largerFirst,1.5,1.5,40,,,,,,,,
,,,,,,,,,,,,,,,832,2022-01-13_11h32.29.331,multiplicationStroop,2021.2.3,Win32,60.12506013,,,,,,,,,,,,,,,,,,,,,,,,,,,,,,,,,81,2.3828,1,0,30,30,35,1,9,×,9,9 × 9,neutral,tie,1.5,1.5,81,,,,,,,,
,,,,,,,,,,,,,,,832,2022-01-13_11h32.29.331,multiplicationStroop,2021.2.3,Win32,60.12506013,,,,,,,,,,,,,,,,,,,,,,,,,,,,,,,,,10,1.575,1,0,31,31,4,1,2,×,5,2 × 5,neutral,smallerFirst,1.5,1.5,10,,,,,,,,
,,,,,,,,,,,,,,,832,2022-01-13_11h32.29.331,multiplicationStroop,2021.2.3,Win32,60.12506013,,,,,,,,,,,,,,,,,,,,,,,,,,,,,,,,,54,1.9326,1,0,32,32,7,1,6,×,9,6 × 9,neutral,smallerFirst,1.5,1.5,54,,,,,,,,
,,,,,,,,,,,,,,,832,2022-01-13_11h32.29.331,multiplicationStroop,2021.2.3,Win32,60.12506013,,,,,,,,,,,,,,,,,,,,,,,,,,,,,,,,,4,1.7826,1,0,33,33,28,1,2,×,2,2 × 2,neutral,tie,1.5,1.5,4,,,,,,,,
,,,,,,,,,,,,,,,832,2022-01-13_11h32.29.331,multiplicationStroop,2021.2.3,Win32,60.12506013,,,,,,,,,,,,,,,,,,,,,,,,,,,,,,,,,72,2.7156,1,0,34,34,11,1,8,×,9,8 × 9,neutral,smallerFirst,1.5,1.5,72,,,,,,,,
,,,,,,,,,,,,,,,832,2022-01-13_11h32.29.331,multiplicationStroop,2021.2.3,Win32,60.12506013,,,,,,,,,,,,,,,,,,,,,,,,,,,,,,,,,16,1.725,1,0,35,35,13,1,2,×,8,2 × 8,neutral,smallerFirst,1.5,1.5,16,,,,,,,,
,,,,,,,,,,,,,,,832,2022-01-13_11h32.29.331,multiplicationStroop,2021.2.3,Win32,60.12506013,,,,,,,,,,,,,,,,,,,,,,,,,,,,,,,,,,,,,,,,,,,,,,,,,,0,1,1,1,1,stimulusFile/mult_blk2.xlsx,,
,,,,,,,,,,,,,,,832,2022-01-13_11h32.29.331,multiplicationStroop,2021.2.3,Win32,60.12506013,,,,,,,,,,,,,,,,,,,,,,,,,,,,,,,space,3.8382,42,4.151,1,0,0,0,3,1,6,×,7,6 × 7,congruent,smallerFirst,1,2,42,,,,,,,,
,,,,,,,,,,,,,,,832,2022-01-13_11h32.29.331,multiplicationStroop,2021.2.3,Win32,60.12506013,,,,,,,,,,,,,,,,,,,,,,,,,,,,,,,,,8,1.6085,1,0,1,1,9,1,2,×,4,2 × 4,congruent,smallerFirst,1,2,8,,,,,,,,
,,,,,,,,,,,,,,,832,2022-01-13_11h32.29.331,multiplicationStroop,2021.2.3,Win32,60.12506013,,,,,,,,,,,,,,,,,,,,,,,,,,,,,,,,,63,4.2488,1,0,2,2,21,1,9,×,7,9 × 7,congruent,largerFirst,2,1,63,,,,,,,,
,,,,,,,,,,,,,,,832,2022-01-13_11h32.29.331,multiplicationStroop,2021.2.3,Win32,60.12506013,,,,,,,,,,,,,,,,,,,,,,,,,,,,,,,,,28,2.1749,1,0,3,3,27,1,7,×,4,7 × 4,congruent,largerFirst,2,1,28,,,,,,,,
,,,,,,,,,,,,,,,832,2022-01-13_11h32.29.331,multiplicationStroop,2021.2.3,Win32,60.12506013,,,,,,,,,,,,,,,,,,,,,,,,,,,,,,,,,4,1.3328,1,0,4,4,28,1,2,×,2,2 × 2,neutral,tie,2,1,4,,,,,,,,
,,,,,,,,,,,,,,,832,2022-01-13_11h32.29.331,multiplicationStroop,2021.2.3,Win32,60.12506013,,,,,,,,,,,,,,,,,,,,,,,,,,,,,,,,,18,1.8993,1,0,5,5,11,1,3,×,6,3 × 6,congruent,smallerFirst,1,2,18,,,,,,,,
,,,,,,,,,,,,,,,832,2022-01-13_11h32.29.331,multiplicationStroop,2021.2.3,Win32,60.12506013,,,,,,,,,,,,,,,,,,,,,,,,,,,,,,,,,54,1.799,1,0,6,6,12,1,6,×,9,6 × 9,congruent,smallerFirst,1,2,54,,,,,,,,
,,,,,,,,,,,,,,,832,2022-01-13_11h32.29.331,multiplicationStroop,2021.2.3,Win32,60.12506013,,,,,,,,,,,,,,,,,,,,,,,,,,,,,,,,,16,1.4662,1,0,7,7,5,1,2,×,8,2 × 8,congruent,smallerFirst,1,2,16,,,,,,,,
,,,,,,,,,,,,,,,832,2022-01-13_11h32.29.331,multiplicationStroop,2021.2.3,Win32,60.12506013,,,,,,,,,,,,,,,,,,,,,,,,,,,,,,,,,25,1.5657,1,0,8,8,31,1,5,×,5,5 × 5,neutral,tie,2,1,25,,,,,,,,
,,,,,,,,,,,,,,,832,2022-01-13_11h32.29.331,multiplicationStroop,2021.2.3,Win32,60.12506013,,,,,,,,,,,,,,,,,,,,,,,,,,,,,,,,,72,5.6822,1,0,9,9,17,1,9,×,8,9 × 8,congruent,largerFirst,2,1,72,,,,,,,,
,,,,,,,,,,,,,,,832,2022-01-13_11h32.29.331,multiplicationStroop,2021.2.3,Win32,60.12506013,,,,,,,,,,,,,,,,,,,,,,,,,,,,,,,,,10,1.6085,1,0,10,10,24,1,5,×,2,5 × 2,congruent,largerFirst,2,1,10,,,,,,,,
,,,,,,,,,,,,,,,832,2022-01-13_11h32.29.331,multiplicationStroop,2021.2.3,Win32,60.12506013,,,,,,,,,,,,,,,,,,,,,,,,,,,,,,,,,30,1.5993,1,0,11,11,15,1,6,×,5,6 × 5,congruent,largerFirst,2,1,30,,,,,,,,
,,,,,,,,,,,,,,,832,2022-01-13_11h32.29.331,multiplicationStroop,2021.2.3,Win32,60.12506013,,,,,,,,,,,,,,,,,,,,,,,,,,,,,,,,,45,1.6159,1,0,12,12,23,1,9,×,5,9 × 5,congruent,largerFirst,2,1,45,,,,,,,,
,,,,,,,,,,,,,,,832,2022-01-13_11h32.29.331,multiplicationStroop,2021.2.3,Win32,60.12506013,,,,,,,,,,,,,,,,,,,,,,,,,,,,,,,,,35,1.716,1,0,13,13,1,1,5,×,7,5 × 7,congruent,smallerFirst,1,2,35,,,,,,,,
,,,,,,,,,,,,,,,832,2022-01-13_11h32.29.331,multiplicationStroop,2021.2.3,Win32,60.12506013,,,,,,,,,,,,,,,,,,,,,,,,,,,,,,,,,24,3.3321,1,0,14,14,25,1,6,×,4,6 × 4,congruent,largerFirst,2,1,24,,,,,,,,
,,,,,,,,,,,,,,,832,2022-01-13_11h32.29.331,multiplicationStroop,2021.2.3,Win32,60.12506013,,,,,,,,,,,,,,,,,,,,,,,,,,,,,,,,,64,1.916,1,0,15,15,34,1,8,×,8,8 × 8,neutral,tie,2,1,64,,,,,,,,
,,,,,,,,,,,,,,,832,2022-01-13_11h32.29.331,multiplicationStroop,2021.2.3,Win32,60.12506013,,,,,,,,,,,,,,,,,,,,,,,,,,,,,,,,,15,1.4331,1,0,16,16,4,1,3,×,5,3 × 5,congruent,smallerFirst,1,2,15,,,,,,,,
,,,,,,,,,,,,,,,832,2022-01-13_11h32.29.331,multiplicationStroop,2021.2.3,Win32,60.12506013,,,,,,,,,,,,,,,,,,,,,,,,,,,,,,,,,20,1.8157,1,0,17,17,7,1,4,×,5,4 × 5,congruent,smallerFirst,1,2,20,,,,,,,,
,,,,,,,,,,,,,,,832,2022-01-13_11h32.29.331,multiplicationStroop,2021.2.3,Win32,60.12506013,,,,,,,,,,,,,,,,,,,,,,,,,,,,,,,,,48,4.5491,1,0,18,18,18,1,8,×,6,8 × 6,congruent,largerFirst,2,1,48,,,,,,,,
,,,,,,,,,,,,,,,832,2022-01-13_11h32.29.331,multiplicationStroop,2021.2.3,Win32,60.12506013,,,,,,,,,,,,,,,,,,,,,,,,,,,,,,,,,12,1.5249,1,0,19,19,2,1,3,×,4,3 × 4,congruent,smallerFirst,1,2,12,,,,,,,,
,,,,,,,,,,,,,,,832,2022-01-13_11h32.29.331,multiplicationStroop,2021.2.3,Win32,60.12506013,,,,,,,,,,,,,,,,,,,,,,,,,,,,,,,,,32,3.7657,1,0,20,20,20,1,8,×,4,8 × 4,congruent,largerFirst,2,1,32,,,,,,,,
,,,,,,,,,,,,,,,832,2022-01-13_11h32.29.331,multiplicationStroop,2021.2.3,Win32,60.12506013,,,,,,,,,,,,,,,,,,,,,,,,,,,,,,,,,24,1.7419,1,0,21,21,10,1,3,×,8,3 × 8,congruent,smallerFirst,1,2,24,,,,,,,,
,,,,,,,,,,,,,,,832,2022-01-13_11h32.29.331,multiplicationStroop,2021.2.3,Win32,60.12506013,,,,,,,,,,,,,,,,,,,,,,,,,,,,,,,,,18,1.9992,1,0,22,22,22,1,9,×,2,9 × 2,congruent,largerFirst,2,1,18,,,,,,,,
,,,,,,,,,,,,,,,832,2022-01-13_11h32.29.331,multiplicationStroop,2021.2.3,Win32,60.12506013,,,,,,,,,,,,,,,,,,,,,,,,,,,,,,,,,27,1.7492,1,0,23,23,26,1,9,×,3,9 × 3,congruent,largerFirst,2,1,27,,,,,,,,
,,,,,,,,,,,,,,,832,2022-01-13_11h32.29.331,multiplicationStroop,2021.2.3,Win32,60.12506013,,,,,,,,,,,,,,,,,,,,,,,,,,,,,,,,,12,1.616,1,0,24,24,19,1,6,×,2,6 × 2,congruent,largerFirst,2,1,12,,,,,,,,
,,,,,,,,,,,,,,,832,2022-01-13_11h32.29.331,multiplicationStroop,2021.2.3,Win32,60.12506013,,,,,,,,,,,,,,,,,,,,,,,,,,,,,,,,,40,1.6658,1,0,25,25,6,1,5,×,8,5 × 8,congruent,smallerFirst,1,2,40,,,,,,,,
,,,,,,,,,,,,,,,832,2022-01-13_11h32.29.331,multiplicationStroop,2021.2.3,Win32,60.12506013,,,,,,,,,,,,,,,,,,,,,,,,,,,,,,,,,6,1.5991,1,0,26,26,13,1,2,×,3,2 × 3,congruent,smallerFirst,1,2,6,,,,,,,,
,,,,,,,,,,,,,,,832,2022-01-13_11h32.29.331,multiplicationStroop,2021.2.3,Win32,60.12506013,,,,,,,,,,,,,,,,,,,,,,,,,,,,,,,,,36,6.282,1,0,27,27,0,1,4,×,9,4 × 9,congruent,smallerFirst,1,2,36,,,,,,,,
,,,,,,,,,,,,,,,832,2022-01-13_11h32.29.331,multiplicationStroop,2021.2.3,Win32,60.12506013,,,,,,,,,,,,,,,,,,,,,,,,,,,,,,,,,56,2.3921,1,0,28,28,8,1,7,×,8,7 × 8,congruent,smallerFirst,1,2,56,,,,,,,,
,,,,,,,,,,,,,,,832,2022-01-13_11h32.29.331,multiplicationStroop,2021.2.3,Win32,60.12506013,,,,,,,,,,,,,,,,,,,,,,,,,,,,,,,,,16,3.049,1,0,29,29,30,1,4,×,4,4 × 4,neutral,tie,2,1,16,,,,,,,,
,,,,,,,,,,,,,,,832,2022-01-13_11h32.29.331,multiplicationStroop,2021.2.3,Win32,60.12506013,,,,,,,,,,,,,,,,,,,,,,,,,,,,,,,,,21,1.4082,1,0,30,30,16,1,7,×,3,7 × 3,congruent,largerFirst,2,1,21,,,,,,,,
,,,,,,,,,,,,,,,832,2022-01-13_11h32.29.331,multiplicationStroop,2021.2.3,Win32,60.12506013,,,,,,,,,,,,,,,,,,,,,,,,,,,,,,,,,36,1.8157,1,0,31,31,32,1,6,×,6,6 × 6,neutral,tie,2,1,36,,,,,,,,
,,,,,,,,,,,,,,,832,2022-01-13_11h32.29.331,multiplicationStroop,2021.2.3,Win32,60.12506013,,,,,,,,,,,,,,,,,,,,,,,,,,,,,,,,,49,2.1819,1,0,32,32,33,1,7,×,7,7 × 7,neutral,tie,2,1,49,,,,,,,,
,,,,,,,,,,,,,,,832,2022-01-13_11h32.29.331,multiplicationStroop,2021.2.3,Win32,60.12506013,,,,,,,,,,,,,,,,,,,,,,,,,,,,,,,,,14,1.4917,1,0,33,33,14,1,7,×,2,7 × 2,congruent,largerFirst,2,1,14,,,,,,,,
,,,,,,,,,,,,,,,832,2022-01-13_11h32.29.331,multiplicationStroop,2021.2.3,Win32,60.12506013,,,,,,,,,,,,,,,,,,,,,,,,,,,,,,,,,9,1.399,1,0,34,34,29,1,3,×,3,3 × 3,neutral,tie,2,1,9,,,,,,,,
,,,,,,,,,,,,,,,832,2022-01-13_11h32.29.331,multiplicationStroop,2021.2.3,Win32,60.12506013,,,,,,,,,,,,,,,,,,,,,,,,,,,,,,,,,81,2.1494,1,0,35,35,35,1,9,×,9,9 × 9,neutral,tie,2,1,81,,,,,,,,
,,,,,,,,,,,,,,,832,2022-01-13_11h32.29.331,multiplicationStroop,2021.2.3,Win32,60.12506013,,,,,,,,,,,,,,,,,,,,,,,,,,,,,,,,,,,,,,,,,,,,,,,,,,0,2,2,2,1,stimulusFile/mult_blk3_congruent.xlsx,,
,,,,,,,,,,,,,,,832,2022-01-13_11h32.29.331,multiplicationStroop,2021.2.3,Win32,60.12506013,,,,,,,,,,,,,,,,,,,,,,,,,,,,,,,space,31.0017,8,1.5497,1,0,0,0,17,1,4,×,2,4 × 2,neutral,largerFirst,1.5,1.5,8,,,,,,,,
,,,,,,,,,,,,,,,832,2022-01-13_11h32.29.331,multiplicationStroop,2021.2.3,Win32,60.12506013,,,,,,,,,,,,,,,,,,,,,,,,,,,,,,,,,12,1.516,1,0,1,1,7,1,3,×,4,3 × 4,neutral,smallerFirst,1.5,1.5,12,,,,,,,,
,,,,,,,,,,,,,,,832,2022-01-13_11h32.29.331,multiplicationStroop,2021.2.3,Win32,60.12506013,,,,,,,,,,,,,,,,,,,,,,,,,,,,,,,,,21,1.433,1,0,2,2,22,1,7,×,3,7 × 3,neutral,largerFirst,1.5,1.5,21,,,,,,,,
,,,,,,,,,,,,,,,832,2022-01-13_11h32.29.331,multiplicationStroop,2021.2.3,Win32,60.12506013,,,,,,,,,,,,,,,,,,,,,,,,,,,,,,,,,35,1.7993,1,0,3,3,15,1,7,×,5,7 × 5,neutral,largerFirst,1.5,1.5,35,,,,,,,,
,,,,,,,,,,,,,,,832,2022-01-13_11h32.29.331,multiplicationStroop,2021.2.3,Win32,60.12506013,,,,,,,,,,,,,,,,,,,,,,,,,,,,,,,,,4,1.316,1,0,4,4,28,1,2,×,2,2 × 2,neutral,tie,1.5,1.5,4,,,,,,,,
,,,,,,,,,,,,,,,832,2022-01-13_11h32.29.331,multiplicationStroop,2021.2.3,Win32,60.12506013,,,,,,,,,,,,,,,,,,,,,,,,,,,,,,,,,6,1.6323,1,0,5,5,12,1,2,×,3,2 × 3,neutral,smallerFirst,1.5,1.5,6,,,,,,,,
,,,,,,,,,,,,,,,832,2022-01-13_11h32.29.331,multiplicationStroop,2021.2.3,Win32,60.12506013,,,,,,,,,,,,,,,,,,,,,,,,,,,,,,,,,24,1.516,1,0,6,6,8,1,3,×,8,3 × 8,neutral,smallerFirst,1.5,1.5,24,,,,,,,,
,,,,,,,,,,,,,,,832,2022-01-13_11h32.29.331,multiplicationStroop,2021.2.3,Win32,60.12506013,,,,,,,,,,,,,,,,,,,,,,,,,,,,,,,,,25,1.5993,1,0,7,7,31,1,5,×,5,5 × 5,neutral,tie,1.5,1.5,25,,,,,,,,
,,,,,,,,,,,,,,,832,2022-01-13_11h32.29.331,multiplicationStroop,2021.2.3,Win32,60.12506013,,,,,,,,,,,,,,,,,,,,,,,,,,,,,,,,,49,1.7658,1,0,8,8,33,1,7,×,7,7 × 7,neutral,tie,1.5,1.5,49,,,,,,,,
,,,,,,,,,,,,,,,832,2022-01-13_11h32.29.331,multiplicationStroop,2021.2.3,Win32,60.12506013,,,,,,,,,,,,,,,,,,,,,,,,,,,,,,,,,64,1.6827,1,0,9,9,34,1,8,×,8,8 × 8,neutral,tie,1.5,1.5,64,,,,,,,,
,,,,,,,,,,,,,,,832,2022-01-13_11h32.29.331,multiplicationStroop,2021.2.3,Win32,60.12506013,,,,,,,,,,,,,,,,,,,,,,,,,,,,,,,,,72,4.3988,1,0,10,10,25,1,9,×,8,9 × 8,neutral,largerFirst,1.5,1.5,72,,,,,,,,
,,,,,,,,,,,,,,,832,2022-01-13_11h32.29.331,multiplicationStroop,2021.2.3,Win32,60.12506013,,,,,,,,,,,,,,,,,,,,,,,,,,,,,,,,,30,1.8082,1,0,11,11,5,1,5,×,6,5 × 6,neutral,smallerFirst,1.5,1.5,30,,,,,,,,
,,,,,,,,,,,,,,,832,2022-01-13_11h32.29.331,multiplicationStroop,2021.2.3,Win32,60.12506013,,,,,,,,,,,,,,,,,,,,,,,,,,,,,,,,,15,1.4495,1,0,12,12,19,1,5,×,3,5 × 3,neutral,largerFirst,1.5,1.5,15,,,,,,,,
,,,,,,,,,,,,,,,832,2022-01-13_11h32.29.331,multiplicationStroop,2021.2.3,Win32,60.12506013,,,,,,,,,,,,,,,,,,,,,,,,,,,,,,,,,32,3.7153,1,0,13,13,9,1,4,×,8,4 × 8,neutral,smallerFirst,1.5,1.5,32,,,,,,,,
,,,,,,,,,,,,,,,832,2022-01-13_11h32.29.331,multiplicationStroop,2021.2.3,Win32,60.12506013,,,,,,,,,,,,,,,,,,,,,,,,,,,,,,,,,42,3.875,1,0,14,14,20,1,7,×,6,7 × 6,neutral,largerFirst,1.5,1.5,42,,,,,,,,
,,,,,,,,,,,,,,,832,2022-01-13_11h32.29.331,multiplicationStroop,2021.2.3,Win32,60.12506013,,,,,,,,,,,,,,,,,,,,,,,,,,,,,,,,,12,1.4249,1,0,15,15,11,1,2,×,6,2 × 6,neutral,smallerFirst,1.5,1.5,12,,,,,,,,
,,,,,,,,,,,,,,,832,2022-01-13_11h32.29.331,multiplicationStroop,2021.2.3,Win32,60.12506013,,,,,,,,,,,,,,,,,,,,,,,,,,,,,,,,,28,1.9991,1,0,16,16,3,1,4,×,7,4 × 7,neutral,smallerFirst,1.5,1.5,28,,,,,,,,
,,,,,,,,,,,,,,,832,2022-01-13_11h32.29.331,multiplicationStroop,2021.2.3,Win32,60.12506013,,,,,,,,,,,,,,,,,,,,,,,,,,,,,,,,,63,4.5822,1,0,17,17,26,1,9,×,7,9 × 7,neutral,largerFirst,1.5,1.5,63,,,,,,,,
,,,,,,,,,,,,,,,832,2022-01-13_11h32.29.331,multiplicationStroop,2021.2.3,Win32,60.12506013,,,,,,,,,,,,,,,,,,,,,,,,,,,,,,,,,16,1.5917,1,0,18,18,30,1,4,×,4,4 × 4,neutral,tie,1.5,1.5,16,,,,,,,,
,,,,,,,,,,,,,,,832,2022-01-13_11h32.29.331,multiplicationStroop,2021.2.3,Win32,60.12506013,,,,,,,,,,,,,,,,,,,,,,,,,,,,,,,,,81,2.1823,1,0,19,19,35,1,9,×,9,9 × 9,neutral,tie,1.5,1.5,81,,,,,,,,
,,,,,,,,,,,,,,,832,2022-01-13_11h32.29.331,multiplicationStroop,2021.2.3,Win32,60.12506013,,,,,,,,,,,,,,,,,,,,,,,,,,,,,,,,,14,1.5494,1,0,20,20,2,1,2,×,7,2 × 7,neutral,smallerFirst,1.5,1.5,14,,,,,,,,
,,,,,,,,,,,,,,,832,2022-01-13_11h32.29.331,multiplicationStroop,2021.2.3,Win32,60.12506013,,,,,,,,,,,,,,,,,,,,,,,,,,,,,,,,,20,1.7327,1,0,21,21,6,1,4,×,5,4 × 5,neutral,smallerFirst,1.5,1.5,20,,,,,,,,
,,,,,,,,,,,,,,,832,2022-01-13_11h32.29.331,multiplicationStroop,2021.2.3,Win32,60.12506013,,,,,,,,,,,,,,,,,,,,,,,,,,,,,,,,,48,3.8657,1,0,22,22,1,1,6,×,8,6 × 8,neutral,smallerFirst,1.5,1.5,48,,,,,,,,
,,,,,,,,,,,,,,,832,2022-01-13_11h32.29.331,multiplicationStroop,2021.2.3,Win32,60.12506013,,,,,,,,,,,,,,,,,,,,,,,,,,,,,,,,,27,1.8413,1,0,23,23,0,1,3,×,9,3 × 9,neutral,smallerFirst,1.5,1.5,27,,,,,,,,
,,,,,,,,,,,,,,,832,2022-01-13_11h32.29.331,multiplicationStroop,2021.2.3,Win32,60.12506013,,,,,,,,,,,,,,,,,,,,,,,,,,,,,,,,,36,1.5994,1,0,24,24,32,1,6,×,6,6 × 6,neutral,tie,1.5,1.5,36,,,,,,,,
,,,,,,,,,,,,,,,832,2022-01-13_11h32.29.331,multiplicationStroop,2021.2.3,Win32,60.12506013,,,,,,,,,,,,,,,,,,,,,,,,,,,,,,,,,40,1.6159,1,0,25,25,10,1,5,×,8,5 × 8,neutral,smallerFirst,1.5,1.5,40,,,,,,,,
,,,,,,,,,,,,,,,832,2022-01-13_11h32.29.331,multiplicationStroop,2021.2.3,Win32,60.12506013,,,,,,,,,,,,,,,,,,,,,,,,,,,,,,,,,10,1.5992,1,0,26,26,18,1,5,×,2,5 × 2,neutral,largerFirst,1.5,1.5,10,,,,,,,,
,,,,,,,,,,,,,,,832,2022-01-13_11h32.29.331,multiplicationStroop,2021.2.3,Win32,60.12506013,,,,,,,,,,,,,,,,,,,,,,,,,,,,,,,,,16,1.8995,1,0,27,27,27,1,8,×,2,8 × 2,neutral,largerFirst,1.5,1.5,16,,,,,,,,
,,,,,,,,,,,,,,,832,2022-01-13_11h32.29.331,multiplicationStroop,2021.2.3,Win32,60.12506013,,,,,,,,,,,,,,,,,,,,,,,,,,,,,,,,,24,1.7492,1,0,28,28,16,1,6,×,4,6 × 4,neutral,largerFirst,1.5,1.5,24,,,,,,,,
,,,,,,,,,,,,,,,832,2022-01-13_11h32.29.331,multiplicationStroop,2021.2.3,Win32,60.12506013,,,,,,,,,,,,,,,,,,,,,,,,,,,,,,,,,9,1.3326,1,0,29,29,29,1,3,×,3,3 × 3,neutral,tie,1.5,1.5,9,,,,,,,,
,,,,,,,,,,,,,,,832,2022-01-13_11h32.29.331,multiplicationStroop,2021.2.3,Win32,60.12506013,,,,,,,,,,,,,,,,,,,,,,,,,,,,,,,,,18,1.799,1,0,30,30,4,1,2,×,9,2 × 9,neutral,smallerFirst,1.5,1.5,18,,,,,,,,
,,,,,,,,,,,,,,,832,2022-01-13_11h32.29.331,multiplicationStroop,2021.2.3,Win32,60.12506013,,,,,,,,,,,,,,,,,,,,,,,,,,,,,,,,,54,2.5491,1,0,31,31,21,1,9,×,6,9 × 6,neutral,largerFirst,1.5,1.5,54,,,,,,,,
,,,,,,,,,,,,,,,832,2022-01-13_11h32.29.331,multiplicationStroop,2021.2.3,Win32,60.12506013,,,,,,,,,,,,,,,,,,,,,,,,,,,,,,,,,45,1.6994,1,0,32,32,24,1,9,×,5,9 × 5,neutral,largerFirst,1.5,1.5,45,,,,,,,,
,,,,,,,,,,,,,,,832,2022-01-13_11h32.29.331,multiplicationStroop,2021.2.3,Win32,60.12506013,,,,,,,,,,,,,,,,,,,,,,,,,,,,,,,,,56,1.8159,1,0,33,33,23,1,8,×,7,8 × 7,neutral,largerFirst,1.5,1.5,56,,,,,,,,
,,,,,,,,,,,,,,,832,2022-01-13_11h32.29.331,multiplicationStroop,2021.2.3,Win32,60.12506013,,,,,,,,,,,,,,,,,,,,,,,,,,,,,,,,,36,5.2154,1,0,34,34,13,1,4,×,9,4 × 9,neutral,smallerFirst,1.5,1.5,36,,,,,,,,
,,,,,,,,,,,,,,,832,2022-01-13_11h32.29.331,multiplicationStroop,2021.2.3,Win32,60.12506013,,,,,,,,,,,,,,,,,,,,,,,,,,,,,,,,,18,1.8746,1,0,35,35,14,1,6,×,3,6 × 3,neutral,largerFirst,1.5,1.5,18,,,,,,,,
,,,,,,,,,,,,,,,832,2022-01-13_11h32.29.331,multiplicationStroop,2021.2.3,Win32,60.12506013,,,,,,,,,,,,,,,,,,,,,,,,,,,,,,,,,,,,,,,,,,,,,,,,,,0,3,3,0,1,stimulusFile/mult_blk1.xlsx,,
,,,,,,,,,,,,,,,832,2022-01-13_11h32.29.331,multiplicationStroop,2021.2.3,Win32,60.12506013,,,,,,,,,,,,,,,,,,,,,,,,,,,,,,,space,0.9235,18,1.6411,1,0,0,0,22,1,6,×,3,6 × 3,incongruent,largerFirst,1,2,18,,,,,,,,
,,,,,,,,,,,,,,,832,2022-01-13_11h32.29.331,multiplicationStroop,2021.2.3,Win32,60.12506013,,,,,,,,,,,,,,,,,,,,,,,,,,,,,,,,,30,3.4657,1,0,1,1,11,1,5,×,6,5 × 6,incongruent,smallerFirst,2,1,30,,,,,,,,
,,,,,,,,,,,,,,,832,2022-01-13_11h32.29.331,multiplicationStroop,2021.2.3,Win32,60.12506013,,,,,,,,,,,,,,,,,,,,,,,,,,,,,,,,,54,1.9582,1,0,2,2,20,1,9,×,6,9 × 6,incongruent,largerFirst,1,2,54,,,,,,,,
,,,,,,,,,,,,,,,832,2022-01-13_11h32.29.331,multiplicationStroop,2021.2.3,Win32,60.12506013,,,,,,,,,,,,,,,,,,,,,,,,,,,,,,,,,49,1.8658,1,0,3,3,33,1,7,×,7,7 × 7,neutral,tie,2,1,49,,,,,,,,
,,,,,,,,,,,,,,,832,2022-01-13_11h32.29.331,multiplicationStroop,2021.2.3,Win32,60.12506013,,,,,,,,,,,,,,,,,,,,,,,,,,,,,,,,,21,1.5324,1,0,4,4,12,1,3,×,7,3 × 7,incongruent,smallerFirst,2,1,21,,,,,,,,
,,,,,,,,,,,,,,,832,2022-01-13_11h32.29.331,multiplicationStroop,2021.2.3,Win32,60.12506013,,,,,,,,,,,,,,,,,,,,,,,,,,,,,,,,,40,1.7663,1,0,5,5,27,1,8,×,5,8 × 5,incongruent,largerFirst,1,2,40,,,,,,,,
,,,,,,,,,,,,,,,832,2022-01-13_11h32.29.331,multiplicationStroop,2021.2.3,Win32,60.12506013,,,,,,,,,,,,,,,,,,,,,,,,,,,,,,,,,64,1.7658,1,0,6,6,34,1,8,×,8,8 × 8,neutral,tie,2,1,64,,,,,,,,
,,,,,,,,,,,,,,,832,2022-01-13_11h32.29.331,multiplicationStroop,2021.2.3,Win32,60.12506013,,,,,,,,,,,,,,,,,,,,,,,,,,,,,,,,,25,1.5491,1,0,7,7,31,1,5,×,5,5 × 5,neutral,tie,2,1,25,,,,,,,,
,,,,,,,,,,,,,,,832,2022-01-13_11h32.29.331,multiplicationStroop,2021.2.3,Win32,60.12506013,,,,,,,,,,,,,,,,,,,,,,,,,,,,,,,,,9,1.4991,1,0,8,8,29,1,3,×,3,3 × 3,neutral,tie,2,1,9,,,,,,,,
,,,,,,,,,,,,,,,832,2022-01-13_11h32.29.331,multiplicationStroop,2021.2.3,Win32,60.12506013,,,,,,,,,,,,,,,,,,,,,,,,,,,,,,,,,24,1.8494,1,0,9,9,6,1,4,×,6,4 × 6,incongruent,smallerFirst,2,1,24,,,,,,,,
,,,,,,,,,,,,,,,832,2022-01-13_11h32.29.331,multiplicationStroop,2021.2.3,Win32,60.12506013,,,,,,,,,,,,,,,,,,,,,,,,,,,,,,,,,12,1.6491,0,0,10,10,18,1,7,×,2,7 × 2,incongruent,largerFirst,1,2,14,,,,,,,,
,,,,,,,,,,,,,,,832,2022-01-13_11h32.29.331,multiplicationStroop,2021.2.3,Win32,60.12506013,,,,,,,,,,,,,,,,,,,,,,,,,,,,,,,,,12,2.5656,1,0,11,11,5,1,2,×,6,2 × 6,incongruent,smallerFirst,2,1,12,,,,,,,,
,,,,,,,,,,,,,,,832,2022-01-13_11h32.29.331,multiplicationStroop,2021.2.3,Win32,60.12506013,,,,,,,,,,,,,,,,,,,,,,,,,,,,,,,,,81,2.4326,1,0,12,12,35,1,9,×,9,9 × 9,neutral,tie,2,1,81,,,,,,,,
,,,,,,,,,,,,,,,832,2022-01-13_11h32.29.331,multiplicationStroop,2021.2.3,Win32,60.12506013,,,,,,,,,,,,,,,,,,,,,,,,,,,,,,,,,18,1.8662,1,0,13,13,16,1,9,×,2,9 × 2,incongruent,largerFirst,1,2,18,,,,,,,,
,,,,,,,,,,,,,,,832,2022-01-13_11h32.29.331,multiplicationStroop,2021.2.3,Win32,60.12506013,,,,,,,,,,,,,,,,,,,,,,,,,,,,,,,,,36,1.6826,1,0,14,14,32,1,6,×,6,6 × 6,neutral,tie,2,1,36,,,,,,,,
,,,,,,,,,,,,,,,832,2022-01-13_11h32.29.331,multiplicationStroop,2021.2.3,Win32,60.12506013,,,,,,,,,,,,,,,,,,,,,,,,,,,,,,,,,42,1.8326,1,0,15,15,3,1,6,×,7,6 × 7,incongruent,smallerFirst,2,1,42,,,,,,,,
,,,,,,,,,,,,,,,832,2022-01-13_11h32.29.331,multiplicationStroop,2021.2.3,Win32,60.12506013,,,,,,,,,,,,,,,,,,,,,,,,,,,,,,,,,35,3.1318,1,0,16,16,26,1,7,×,5,7 × 5,incongruent,largerFirst,1,2,35,,,,,,,,
,,,,,,,,,,,,,,,832,2022-01-13_11h32.29.331,multiplicationStroop,2021.2.3,Win32,60.12506013,,,,,,,,,,,,,,,,,,,,,,,,,,,,,,,,,32,2.3663,1,0,17,17,21,1,8,×,4,8 × 4,incongruent,largerFirst,1,2,32,,,,,,,,
,,,,,,,,,,,,,,,832,2022-01-13_11h32.29.331,multiplicationStroop,2021.2.3,Win32,60.12506013,,,,,,,,,,,,,,,,,,,,,,,,,,,,,,,,,12,1.749,1,0,18,18,19,1,4,×,3,4 × 3,incongruent,largerFirst,1,2,12,,,,,,,,
,,,,,,,,,,,,,,,832,2022-01-13_11h32.29.331,multiplicationStroop,2021.2.3,Win32,60.12506013,,,,,,,,,,,,,,,,,,,,,,,,,,,,,,,,,6,1.7164,1,0,19,19,25,1,3,×,2,3 × 2,incongruent,largerFirst,1,2,6,,,,,,,,
,,,,,,,,,,,,,,,832,2022-01-13_11h32.29.331,multiplicationStroop,2021.2.3,Win32,60.12506013,,,,,,,,,,,,,,,,,,,,,,,,,,,,,,,,,36,2.7156,1,0,20,20,1,1,4,×,9,4 × 9,incongruent,smallerFirst,2,1,36,,,,,,,,
,,,,,,,,,,,,,,,832,2022-01-13_11h32.29.331,multiplicationStroop,2021.2.3,Win32,60.12506013,,,,,,,,,,,,,,,,,,,,,,,,,,,,,,,,,16,1.5584,1,0,21,21,30,1,4,×,4,4 × 4,neutral,tie,2,1,16,,,,,,,,
,,,,,,,,,,,,,,,832,2022-01-13_11h32.29.331,multiplicationStroop,2021.2.3,Win32,60.12506013,,,,,,,,,,,,,,,,,,,,,,,,,,,,,,,,,63,2.8993,1,0,22,22,17,1,9,×,7,9 × 7,incongruent,largerFirst,1,2,63,,,,,,,,
,,,,,,,,,,,,,,,832,2022-01-13_11h32.29.331,multiplicationStroop,2021.2.3,Win32,60.12506013,,,,,,,,,,,,,,,,,,,,,,,,,,,,,,,,,8,1.5914,1,0,23,23,10,1,2,×,4,2 × 4,incongruent,smallerFirst,2,1,8,,,,,,,,
,,,,,,,,,,,,,,,832,2022-01-13_11h32.29.331,multiplicationStroop,2021.2.3,Win32,60.12506013,,,,,,,,,,,,,,,,,,,,,,,,,,,,,,,,,16,1.6327,1,0,24,24,9,1,2,×,8,2 × 8,incongruent,smallerFirst,2,1,16,,,,,,,,
,,,,,,,,,,,,,,,832,2022-01-13_11h32.29.331,multiplicationStroop,2021.2.3,Win32,60.12506013,,,,,,,,,,,,,,,,,,,,,,,,,,,,,,,,,24,1.7658,1,0,25,25,23,1,8,×,3,8 × 3,incongruent,largerFirst,1,2,24,,,,,,,,
,,,,,,,,,,,,,,,832,2022-01-13_11h32.29.331,multiplicationStroop,2021.2.3,Win32,60.12506013,,,,,,,,,,,,,,,,,,,,,,,,,,,,,,,,,15,1.4159,1,0,26,26,24,1,5,×,3,5 × 3,incongruent,largerFirst,1,2,15,,,,,,,,
,,,,,,,,,,,,,,,832,2022-01-13_11h32.29.331,multiplicationStroop,2021.2.3,Win32,60.12506013,,,,,,,,,,,,,,,,,,,,,,,,,,,,,,,,,20,1.7656,1,0,27,27,13,1,4,×,5,4 × 5,incongruent,smallerFirst,2,1,20,,,,,,,,
,,,,,,,,,,,,,,,832,2022-01-13_11h32.29.331,multiplicationStroop,2021.2.3,Win32,60.12506013,,,,,,,,,,,,,,,,,,,,,,,,,,,,,,,,,27,1.7331,1,0,28,28,4,1,3,×,9,3 × 9,incongruent,smallerFirst,2,1,27,,,,,,,,
,,,,,,,,,,,,,,,832,2022-01-13_11h32.29.331,multiplicationStroop,2021.2.3,Win32,60.12506013,,,,,,,,,,,,,,,,,,,,,,,,,,,,,,,,,48,5.7987,1,0,29,29,15,1,8,×,6,8 × 6,incongruent,largerFirst,1,2,48,,,,,,,,
,,,,,,,,,,,,,,,832,2022-01-13_11h32.29.331,multiplicationStroop,2021.2.3,Win32,60.12506013,,,,,,,,,,,,,,,,,,,,,,,,,,,,,,,,,28,1.9414,1,0,30,30,2,1,4,×,7,4 × 7,incongruent,smallerFirst,2,1,28,,,,,,,,
,,,,,,,,,,,,,,,832,2022-01-13_11h32.29.331,multiplicationStroop,2021.2.3,Win32,60.12506013,,,,,,,,,,,,,,,,,,,,,,,,,,,,,,,,,4,1.2494,1,0,31,31,28,1,2,×,2,2 × 2,neutral,tie,2,1,4,,,,,,,,
,,,,,,,,,,,,,,,832,2022-01-13_11h32.29.331,multiplicationStroop,2021.2.3,Win32,60.12506013,,,,,,,,,,,,,,,,,,,,,,,,,,,,,,,,,72,3.7322,1,0,32,32,14,1,9,×,8,9 × 8,incongruent,largerFirst,1,2,72,,,,,,,,
,,,,,,,,,,,,,,,832,2022-01-13_11h32.29.331,multiplicationStroop,2021.2.3,Win32,60.12506013,,,,,,,,,,,,,,,,,,,,,,,,,,,,,,,,,56,2.8747,1,0,33,33,0,1,7,×,8,7 × 8,incongruent,smallerFirst,2,1,56,,,,,,,,
,,,,,,,,,,,,,,,832,2022-01-13_11h32.29.331,multiplicationStroop,2021.2.3,Win32,60.12506013,,,,,,,,,,,,,,,,,,,,,,,,,,,,,,,,,10,1.6414,1,0,34,34,7,1,2,×,5,2 × 5,incongruent,smallerFirst,2,1,10,,,,,,,,
,,,,,,,,,,,,,,,832,2022-01-13_11h32.29.331,multiplicationStroop,2021.2.3,Win32,60.12506013,,,,,,,,,,,,,,,,,,,,,,,,,,,,,,,,,45,3.8822,1,0,35,35,8,1,5,×,9,5 × 9,incongruent,smallerFirst,2,1,45,,,,,,,,
,,,,,,,,,,,,,,,832,2022-01-13_11h32.29.331,multiplicationStroop,2021.2.3,Win32,60.12506013,,,,,,,,,,,,,,,,,,,,,,,,,,,,,,,,,,,,,,,,,,,,,,,,,,0,4,4,4,1,stimulusFile/mult_blk5_INcongruent.xlsx,,
,,,,,,,,,,,,,,,832,2022-01-13_11h32.29.331,multiplicationStroop,2021.2.3,Win32,60.12506013,,,,,,,,,,,,,,,,,,,,,,,,,,,,,,,space,16.7769,27,2.0164,1,0,0,0,18,1,9,×,3,9 × 3,incongruent,largerFirst,1,2,27,,,,,,,,
,,,,,,,,,,,,,,,832,2022-01-13_11h32.29.331,multiplicationStroop,2021.2.3,Win32,60.12506013,,,,,,,,,,,,,,,,,,,,,,,,,,,,,,,,,16,1.6161,1,0,1,1,23,1,8,×,2,8 × 2,incongruent,largerFirst,1,2,16,,,,,,,,
,,,,,,,,,,,,,,,832,2022-01-13_11h32.29.331,multiplicationStroop,2021.2.3,Win32,60.12506013,,,,,,,,,,,,,,,,,,,,,,,,,,,,,,,,,21,1.4827,1,0,2,2,26,1,7,×,3,7 × 3,incongruent,largerFirst,1,2,21,,,,,,,,
,,,,,,,,,,,,,,,832,2022-01-13_11h32.29.331,multiplicationStroop,2021.2.3,Win32,60.12506013,,,,,,,,,,,,,,,,,,,,,,,,,,,,,,,,,20,1.5828,1,0,3,3,27,1,5,×,4,5 × 4,incongruent,largerFirst,1,2,20,,,,,,,,
,,,,,,,,,,,,,,,832,2022-01-13_11h32.29.331,multiplicationStroop,2021.2.3,Win32,60.12506013,,,,,,,,,,,,,,,,,,,,,,,,,,,,,,,,,14,1.966,1,0,4,4,4,1,2,×,7,2 × 7,incongruent,smallerFirst,2,1,14,,,,,,,,
,,,,,,,,,,,,,,,832,2022-01-13_11h32.29.331,multiplicationStroop,2021.2.3,Win32,60.12506013,,,,,,,,,,,,,,,,,,,,,,,,,,,,,,,,,36,3.1991,1,0,5,5,15,1,9,×,4,9 × 4,incongruent,largerFirst,1,2,36,,,,,,,,
,,,,,,,,,,,,,,,832,2022-01-13_11h32.29.331,multiplicationStroop,2021.2.3,Win32,60.12506013,,,,,,,,,,,,,,,,,,,,,,,,,,,,,,,,,45,1.6661,1,0,6,6,22,1,9,×,5,9 × 5,incongruent,largerFirst,1,2,45,,,,,,,,
,,,,,,,,,,,,,,,832,2022-01-13_11h32.29.331,multiplicationStroop,2021.2.3,Win32,60.12506013,,,,,,,,,,,,,,,,,,,,,,,,,,,,,,,,,28,1.8995,1,0,7,7,16,1,7,×,4,7 × 4,incongruent,largerFirst,1,2,28,,,,,,,,
,,,,,,,,,,,,,,,832,2022-01-13_11h32.29.331,multiplicationStroop,2021.2.3,Win32,60.12506013,,,,,,,,,,,,,,,,,,,,,,,,,,,,,,,,,8,1.6994,1,0,8,8,24,1,4,×,2,4 × 2,incongruent,largerFirst,1,2,8,,,,,,,,
,,,,,,,,,,,,,,,832,2022-01-13_11h32.29.331,multiplicationStroop,2021.2.3,Win32,60.12506013,,,,,,,,,,,,,,,,,,,,,,,,,,,,,,,,,40,1.7493,1,0,9,9,13,1,5,×,8,5 × 8,incongruent,smallerFirst,2,1,40,,,,,,,,
,,,,,,,,,,,,,,,832,2022-01-13_11h32.29.331,multiplicationStroop,2021.2.3,Win32,60.12506013,,,,,,,,,,,,,,,,,,,,,,,,,,,,,,,,,12,1.8161,1,0,10,10,5,1,3,×,4,3 × 4,incongruent,smallerFirst,2,1,12,,,,,,,,
,,,,,,,,,,,,,,,832,2022-01-13_11h32.29.331,multiplicationStroop,2021.2.3,Win32,60.12506013,,,,,,,,,,,,,,,,,,,,,,,,,,,,,,,,,49,1.8326,1,0,11,11,33,1,7,×,7,7 × 7,incongruent,tie,1,2,49,,,,,,,,
,,,,,,,,,,,,,,,832,2022-01-13_11h32.29.331,multiplicationStroop,2021.2.3,Win32,60.12506013,,,,,,,,,,,,,,,,,,,,,,,,,,,,,,,,,18,1.7993,1,0,12,12,8,1,3,×,6,3 × 6,incongruent,smallerFirst,2,1,18,,,,,,,,
,,,,,,,,,,,,,,,832,2022-01-13_11h32.29.331,multiplicationStroop,2021.2.3,Win32,60.12506013,,,,,,,,,,,,,,,,,,,,,,,,,,,,,,,,,24,1.6828,1,0,13,13,20,1,6,×,4,6 × 4,incongruent,largerFirst,1,2,24,,,,,,,,
,,,,,,,,,,,,,,,832,2022-01-13_11h32.29.331,multiplicationStroop,2021.2.3,Win32,60.12506013,,,,,,,,,,,,,,,,,,,,,,,,,,,,,,,,,36,2.7992,1,0,14,14,32,1,6,×,6,6 × 6,incongruent,tie,1,2,36,,,,,,,,
,,,,,,,,,,,,,,,832,2022-01-13_11h32.29.331,multiplicationStroop,2021.2.3,Win32,60.12506013,,,,,,,,,,,,,,,,,,,,,,,,,,,,,,,,,32,7.0488,1,0,15,15,7,1,4,×,8,4 × 8,incongruent,smallerFirst,2,1,32,,,,,,,,
,,,,,,,,,,,,,,,832,2022-01-13_11h32.29.331,multiplicationStroop,2021.2.3,Win32,60.12506013,,,,,,,,,,,,,,,,,,,,,,,,,,,,,,,,,54,1.6415,1,0,16,16,6,1,6,×,9,6 × 9,incongruent,smallerFirst,2,1,54,,,,,,,,
,,,,,,,,,,,,,,,832,2022-01-13_11h32.29.331,multiplicationStroop,2021.2.3,Win32,60.12506013,,,,,,,,,,,,,,,,,,,,,,,,,,,,,,,,,18,1.5329,1,0,17,17,2,1,2,×,9,2 × 9,incongruent,smallerFirst,2,1,18,,,,,,,,
,,,,,,,,,,,,,,,832,2022-01-13_11h32.29.331,multiplicationStroop,2021.2.3,Win32,60.12506013,,,,,,,,,,,,,,,,,,,,,,,,,,,,,,,,,72,3.2491,1,0,18,18,0,1,8,×,9,8 × 9,incongruent,smallerFirst,2,1,72,,,,,,,,
,,,,,,,,,,,,,,,832,2022-01-13_11h32.29.331,multiplicationStroop,2021.2.3,Win32,60.12506013,,,,,,,,,,,,,,,,,,,,,,,,,,,,,,,,,42,2.2917,1,0,19,19,17,1,7,×,6,7 × 6,incongruent,largerFirst,1,2,42,,,,,,,,
,,,,,,,,,,,,,,,832,2022-01-13_11h32.29.331,multiplicationStroop,2021.2.3,Win32,60.12506013,,,,,,,,,,,,,,,,,,,,,,,,,,,,,,,,,24,2.2988,1,0,20,20,9,1,3,×,8,3 × 8,incongruent,smallerFirst,2,1,24,,,,,,,,
,,,,,,,,,,,,,,,832,2022-01-13_11h32.29.331,multiplicationStroop,2021.2.3,Win32,60.12506013,,,,,,,,,,,,,,,,,,,,,,,,,,,,,,,,,30,1.8497,1,0,21,21,25,1,6,×,5,6 × 5,incongruent,largerFirst,1,2,30,,,,,,,,
,,,,,,,,,,,,,,,832,2022-01-13_11h32.29.331,multiplicationStroop,2021.2.3,Win32,60.12506013,,,,,,,,,,,,,,,,,,,,,,,,,,,,,,,,,63,5.7318,1,0,22,22,3,1,7,×,9,7 × 9,incongruent,smallerFirst,2,1,63,,,,,,,,
,,,,,,,,,,,,,,,832,2022-01-13_11h32.29.331,multiplicationStroop,2021.2.3,Win32,60.12506013,,,,,,,,,,,,,,,,,,,,,,,,,,,,,,,,,81,2.625,1,0,23,23,35,1,9,×,9,9 × 9,incongruent,tie,1,2,81,,,,,,,,
,,,,,,,,,,,,,,,832,2022-01-13_11h32.29.331,multiplicationStroop,2021.2.3,Win32,60.12506013,,,,,,,,,,,,,,,,,,,,,,,,,,,,,,,,,56,1.8824,1,0,24,24,14,1,8,×,7,8 × 7,incongruent,largerFirst,1,2,56,,,,,,,,
,,,,,,,,,,,,,,,832,2022-01-13_11h32.29.331,multiplicationStroop,2021.2.3,Win32,60.12506013,,,,,,,,,,,,,,,,,,,,,,,,,,,,,,,,,12,1.3159,1,0,25,25,19,1,6,×,2,6 × 2,incongruent,largerFirst,1,2,12,,,,,,,,
,,,,,,,,,,,,,,,832,2022-01-13_11h32.29.331,multiplicationStroop,2021.2.3,Win32,60.12506013,,,,,,,,,,,,,,,,,,,,,,,,,,,,,,,,,48,4.4156,1,0,26,26,1,1,6,×,8,6 × 8,incongruent,smallerFirst,2,1,48,,,,,,,,
,,,,,,,,,,,,,,,832,2022-01-13_11h32.29.331,multiplicationStroop,2021.2.3,Win32,60.12506013,,,,,,,,,,,,,,,,,,,,,,,,,,,,,,,,,9,2.5748,1,0,27,27,29,1,3,×,3,3 × 3,incongruent,tie,1,2,9,,,,,,,,
,,,,,,,,,,,,,,,832,2022-01-13_11h32.29.331,multiplicationStroop,2021.2.3,Win32,60.12506013,,,,,,,,,,,,,,,,,,,,,,,,,,,,,,,,,16,1.6992,1,0,28,28,30,1,4,×,4,4 × 4,incongruent,tie,1,2,16,,,,,,,,
,,,,,,,,,,,,,,,832,2022-01-13_11h32.29.331,multiplicationStroop,2021.2.3,Win32,60.12506013,,,,,,,,,,,,,,,,,,,,,,,,,,,,,,,,,4,1.2993,1,0,29,29,28,1,2,×,2,2 × 2,incongruent,tie,1,2,4,,,,,,,,
,,,,,,,,,,,,,,,832,2022-01-13_11h32.29.331,multiplicationStroop,2021.2.3,Win32,60.12506013,,,,,,,,,,,,,,,,,,,,,,,,,,,,,,,,,6,1.4994,1,0,30,30,11,1,2,×,3,2 × 3,incongruent,smallerFirst,2,1,6,,,,,,,,
,,,,,,,,,,,,,,,832,2022-01-13_11h32.29.331,multiplicationStroop,2021.2.3,Win32,60.12506013,,,,,,,,,,,,,,,,,,,,,,,,,,,,,,,,,35,1.9992,1,0,31,31,12,1,5,×,7,5 × 7,incongruent,smallerFirst,2,1,35,,,,,,,,
,,,,,,,,,,,,,,,832,2022-01-13_11h32.29.331,multiplicationStroop,2021.2.3,Win32,60.12506013,,,,,,,,,,,,,,,,,,,,,,,,,,,,,,,,,25,1.9325,1,0,32,32,31,1,5,×,5,5 × 5,incongruent,tie,1,2,25,,,,,,,,
,,,,,,,,,,,,,,,832,2022-01-13_11h32.29.331,multiplicationStroop,2021.2.3,Win32,60.12506013,,,,,,,,,,,,,,,,,,,,,,,,,,,,,,,,,64,2.0828,1,0,33,33,34,1,8,×,8,8 × 8,incongruent,tie,1,2,64,,,,,,,,
,,,,,,,,,,,,,,,832,2022-01-13_11h32.29.331,multiplicationStroop,2021.2.3,Win32,60.12506013,,,,,,,,,,,,,,,,,,,,,,,,,,,,,,,,,10,1.6993,1,0,34,34,21,1,5,×,2,5 × 2,incongruent,largerFirst,1,2,10,,,,,,,,
,,,,,,,,,,,,,,,832,2022-01-13_11h32.29.331,multiplicationStroop,2021.2.3,Win32,60.12506013,,,,,,,,,,,,,,,,,,,,,,,,,,,,,,,,,15,1.4493,1,0,35,35,10,1,3,×,5,3 × 5,incongruent,smallerFirst,2,1,15,,,,,,,,
,,,,,,,,,,,,,,,832,2022-01-13_11h32.29.331,multiplicationStroop,2021.2.3,Win32,60.12506013,,,,,,,,,,,,,,,,,,,,,,,,,,,,,,,,,,,,,,,,,,,,,,,,,,0,5,5,5,1,stimulusFile/mult_blk6_INcongruent.xlsx,,
,,,,,,,,,,,,,,,832,2022-01-13_11h32.29.331,multiplicationStroop,2021.2.3,Win32,60.12506013,,,,,,,,,,,,,,,,,,,,,,,,,,,,,,,,,,,,,,,,,,,,,,,,,,,,,,,,space,1.266