welcomeKey_resp.keys,welcomeKey_resp.rt,X Scale,Y Scale,rt_resp_4.keys,rt_resp_4.corr,rt_resp_4.rt,speedtest_2.thisRepN,speedtest_2.thisTrialN,speedtest_2.thisN,speedtest_2.thisIndex,speedtest_2.ran,numberSc,posX,positionLayout,participant,date,expName,psychopyVersion,OS,frameRate,ct_instrresp.keys,ct_instrresp.rt,key_resp_2.keys,key_resp_2.rt,ct_keyResp.keys,ct_keyResp.corr,ct_keyResp.rt,trials.thisRepN,trials.thisTrialN,trials.thisN,trials.thisIndex,trials.ran,leftNo,rightNo,displayProblem,numDistance,leftNo_size,rightNo_size,Dims,keyAnswer,TS_Loop.thisRepN,TS_Loop.thisTrialN,TS_Loop.thisN,TS_Loop.thisIndex,TS_Loop.ran,Condition,ActionInst,instrImage,mltptaskInst_resp.keys,mltptaskInst_resp.rt,continue_resp_2.keys,continue_resp_2.rt,multp_Answer,multi_RT,multiplyCorr,LoopingMultiply.thisRepN,LoopingMultiply.thisTrialN,LoopingMultiply.thisN,LoopingMultiply.thisIndex,LoopingMultiply.ran,factor1,multiplySign,factor2,multliplyProblem,physicalSize,orderOperand,sizeF1,sizeF2,mult_answer,trials_stroop.thisRepN,trials_stroop.thisTrialN,trials_stroop.thisN,trials_stroop.thisIndex,trials_stroop.ran,multiplicationFile,esckey_resp_2.keys,esckey_resp_2.rt
y,3.094,60,45.5,right,1,0.4915,0,0,0,14,1,8,200,right,8380,2022-02-13_16h26.15.457,multiplicationStroop,2021.2.3,MacIntel,60.04202942,,,,,,,,,,,,,,,,,,,,,,,,,,,,,,,,,,,,,,,,,,,,,,,,,,,,,,,,,
,,,,right,1,0.8667,0,1,1,11,1,4,200,right,8380,2022-02-13_16h26.15.457,multiplicationStroop,2021.2.3,MacIntel,60.04202942,,,,,,,,,,,,,,,,,,,,,,,,,,,,,,,,,,,,,,,,,,,,,,,,,,,,,,,,,
,,,,right,1,0.2928,0,2,2,12,1,6,200,right,8380,2022-02-13_16h26.15.457,multiplicationStroop,2021.2.3,MacIntel,60.04202942,,,,,,,,,,,,,,,,,,,,,,,,,,,,,,,,,,,,,,,,,,,,,,,,,,,,,,,,,
,,,,right,1,0.3404,0,3,3,13,1,7,200,right,8380,2022-02-13_16h26.15.457,multiplicationStroop,2021.2.3,MacIntel,60.04202942,,,,,,,,,,,,,,,,,,,,,,,,,,,,,,,,,,,,,,,,,,,,,,,,,,,,,,,,,
,,,,left,1,0.4322,0,4,4,7,1,9,-200,left,8380,2022-02-13_16h26.15.457,multiplicationStroop,2021.2.3,MacIntel,60.04202942,,,,,,,,,,,,,,,,,,,,,,,,,,,,,,,,,,,,,,,,,,,,,,,,,,,,,,,,,
,,,,right,1,0.3938,0,5,5,8,1,1,200,right,8380,2022-02-13_16h26.15.457,multiplicationStroop,2021.2.3,MacIntel,60.04202942,,,,,,,,,,,,,,,,,,,,,,,,,,,,,,,,,,,,,,,,,,,,,,,,,,,,,,,,,
,,,,left,1,0.408,0,6,6,0,1,1,-200,left,8380,2022-02-13_16h26.15.457,multiplicationStroop,2021.2.3,MacIntel,60.04202942,,,,,,,,,,,,,,,,,,,,,,,,,,,,,,,,,,,,,,,,,,,,,,,,,,,,,,,,,
,,,,left,1,0.4489,0,7,7,4,1,6,-200,left,8380,2022-02-13_16h26.15.457,multiplicationStroop,2021.2.3,MacIntel,60.04202942,,,,,,,,,,,,,,,,,,,,,,,,,,,,,,,,,,,,,,,,,,,,,,,,,,,,,,,,,
,,,,right,1,0.371,0,8,8,10,1,3,200,right,8380,2022-02-13_16h26.15.457,multiplicationStroop,2021.2.3,MacIntel,60.04202942,,,,,,,,,,,,,,,,,,,,,,,,,,,,,,,,,,,,,,,,,,,,,,,,,,,,,,,,,
,,,,right,1,0.3913,0,9,9,9,1,2,200,right,8380,2022-02-13_16h26.15.457,multiplicationStroop,2021.2.3,MacIntel,60.04202942,,,,,,,,,,,,,,,,,,,,,,,,,,,,,,,,,,,,,,,,,,,,,,,,,,,,,,,,,
,,,,left,1,0.5068,0,10,10,1,1,2,-200,left,8380,2022-02-13_16h26.15.457,multiplicationStroop,2021.2.3,MacIntel,60.04202942,,,,,,,,,,,,,,,,,,,,,,,,,,,,,,,,,,,,,,,,,,,,,,,,,,,,,,,,,
,,,,left,1,0.5149,0,11,11,2,1,3,-200,left,8380,2022-02-13_16h26.15.457,multiplicationStroop,2021.2.3,MacIntel,60.04202942,,,,,,,,,,,,,,,,,,,,,,,,,,,,,,,,,,,,,,,,,,,,,,,,,,,,,,,,,
,,,,left,1,0.4995,0,12,12,3,1,4,-200,left,8380,2022-02-13_16h26.15.457,multiplicationStroop,2021.2.3,MacIntel,60.04202942,,,,,,,,,,,,,,,,,,,,,,,,,,,,,,,,,,,,,,,,,,,,,,,,,,,,,,,,,
,,,,left,1,0.4553,0,13,13,6,1,8,-200,left,8380,2022-02-13_16h26.15.457,multiplicationStroop,2021.2.3,MacIntel,60.04202942,,,,,,,,,,,,,,,,,,,,,,,,,,,,,,,,,,,,,,,,,,,,,,,,,,,,,,,,,
,,,,right,1,0.3701,0,14,14,15,1,9,200,right,8380,2022-02-13_16h26.15.457,multiplicationStroop,2021.2.3,MacIntel,60.04202942,,,,,,,,,,,,,,,,,,,,,,,,,,,,,,,,,,,,,,,,,,,,,,,,,,,,,,,,,
,,,,left,1,0.3481,0,15,15,5,1,7,-200,left,8380,2022-02-13_16h26.15.457,multiplicationStroop,2021.2.3,MacIntel,60.04202942,,,,,,,,,,,,,,,,,,,,,,,,,,,,,,,,,,,,,,,,,,,,,,,,,,,,,,,,,
,,,,left,1,0.3111,1,0,16,4,1,6,-200,left,8380,2022-02-13_16h26.15.457,multiplicationStroop,2021.2.3,MacIntel,60.04202942,,,,,,,,,,,,,,,,,,,,,,,,,,,,,,,,,,,,,,,,,,,,,,,,,,,,,,,,,
,,,,left,1,0.3477,1,1,17,2,1,3,-200,left,8380,2022-02-13_16h26.15.457,multiplicationStroop,2021.2.3,MacIntel,60.04202942,,,,,,,,,,,,,,,,,,,,,,,,,,,,,,,,,,,,,,,,,,,,,,,,,,,,,,,,,
,,,,left,1,0.3783,1,2,18,7,1,9,-200,left,8380,2022-02-13_16h26.15.457,multiplicationStroop,2021.2.3,MacIntel,60.04202942,,,,,,,,,,,,,,,,,,,,,,,,,,,,,,,,,,,,,,,,,,,,,,,,,,,,,,,,,
,,,,right,1,0.3867,1,3,19,8,1,1,200,right,8380,2022-02-13_16h26.15.457,multiplicationStroop,2021.2.3,MacIntel,60.04202942,,,,,,,,,,,,,,,,,,,,,,,,,,,,,,,,,,,,,,,,,,,,,,,,,,,,,,,,,
,,,,left,1,0.3708,1,4,20,0,1,1,-200,left,8380,2022-02-13_16h26.15.457,multiplicationStroop,2021.2.3,MacIntel,60.04202942,,,,,,,,,,,,,,,,,,,,,,,,,,,,,,,,,,,,,,,,,,,,,,,,,,,,,,,,,
,,,,right,1,0.4283,1,5,21,14,1,8,200,right,8380,2022-02-13_16h26.15.457,multiplicationStroop,2021.2.3,MacIntel,60.04202942,,,,,,,,,,,,,,,,,,,,,,,,,,,,,,,,,,,,,,,,,,,,,,,,,,,,,,,,,
,,,,right,1,0.388,1,6,22,9,1,2,200,right,8380,2022-02-13_16h26.15.457,multiplicationStroop,2021.2.3,MacIntel,60.04202942,,,,,,,,,,,,,,,,,,,,,,,,,,,,,,,,,,,,,,,,,,,,,,,,,,,,,,,,,
,,,,right,1,0.3106,1,7,23,13,1,7,200,right,8380,2022-02-13_16h26.15.457,multiplicationStroop,2021.2.3,MacIntel,60.04202942,,,,,,,,,,,,,,,,,,,,,,,,,,,,,,,,,,,,,,,,,,,,,,,,,,,,,,,,,
,,,,right,1,0.2697,1,8,24,11,1,4,200,right,8380,2022-02-13_16h26.15.457,multiplicationStroop,2021.2.3,MacIntel,60.04202942,,,,,,,,,,,,,,,,,,,,,,,,,,,,,,,,,,,,,,,,,,,,,,,,,,,,,,,,,
,,,,left,1,0.4679,1,9,25,3,1,4,-200,left,8380,2022-02-13_16h26.15.457,multiplicationStroop,2021.2.3,MacIntel,60.04202942,,,,,,,,,,,,,,,,,,,,,,,,,,,,,,,,,,,,,,,,,,,,,,,,,,,,,,,,,
,,,,right,1,0.4315,1,10,26,10,1,3,200,right,8380,2022-02-13_16h26.15.457,multiplicationStroop,2021.2.3,MacIntel,60.04202942,,,,,,,,,,,,,,,,,,,,,,,,,,,,,,,,,,,,,,,,,,,,,,,,,,,,,,,,,
,,,,left,1,0.3701,1,11,27,6,1,8,-200,left,8380,2022-02-13_16h26.15.457,multiplicationStroop,2021.2.3,MacIntel,60.04202942,,,,,,,,,,,,,,,,,,,,,,,,,,,,,,,,,,,,,,,,,,,,,,,,,,,,,,,,,
,,,,right,0,0.2672,1,12,28,5,1,7,-200,left,8380,2022-02-13_16h26.15.457,multiplicationStroop,2021.2.3,MacIntel,60.04202942,,,,,,,,,,,,,,,,,,,,,,,,,,,,,,,,,,,,,,,,,,,,,,,,,,,,,,,,,
,,,,left,1,0.1269,1,13,29,1,1,2,-200,left,8380,2022-02-13_16h26.15.457,multiplicationStroop,2021.2.3,MacIntel,60.04202942,,,,,,,,,,,,,,,,,,,,,,,,,,,,,,,,,,,,,,,,,,,,,,,,,,,,,,,,,
,,,,right,1,0.5632,1,14,30,12,1,6,200,right,8380,2022-02-13_16h26.15.457,multiplicationStroop,2021.2.3,MacIntel,60.04202942,,,,,,,,,,,,,,,,,,,,,,,,,,,,,,,,,,,,,,,,,,,,,,,,,,,,,,,,,
,,,,right,1,0.4334,1,15,31,15,1,9,200,right,8380,2022-02-13_16h26.15.457,multiplicationStroop,2021.2.3,MacIntel,60.04202942,,,,,,,,,,,,,,,,,,,,,,,,,,,,,,,,,,,,,,,,,,,,,,,,,,,,,,,,,
,,,,left,1,0.4837,2,0,32,4,1,6,-200,left,8380,2022-02-13_16h26.15.457,multiplicationStroop,2021.2.3,MacIntel,60.04202942,,,,,,,,,,,,,,,,,,,,,,,,,,,,,,,,,,,,,,,,,,,,,,,,,,,,,,,,,
,,,,right,1,0.414,2,1,33,10,1,3,200,right,8380,2022-02-13_16h26.15.457,multiplicationStroop,2021.2.3,MacIntel,60.04202942,,,,,,,,,,,,,,,,,,,,,,,,,,,,,,,,,,,,,,,,,,,,,,,,,,,,,,,,,
,,,,right,1,0.4648,2,2,34,13,1,7,200,right,8380,2022-02-13_16h26.15.457,multiplicationStroop,2021.2.3,MacIntel,60.04202942,,,,,,,,,,,,,,,,,,,,,,,,,,,,,,,,,,,,,,,,,,,,,,,,,,,,,,,,,
,,,,left,1,0.4323,2,3,35,5,1,7,-200,left,8380,2022-02-13_16h26.15.457,multiplicationStroop,2021.2.3,MacIntel,60.04202942,,,,,,,,,,,,,,,,,,,,,,,,,,,,,,,,,,,,,,,,,,,,,,,,,,,,,,,,,
,,,,left,1,0.4156,2,4,36,2,1,3,-200,left,8380,2022-02-13_16h26.15.457,multiplicationStroop,2021.2.3,MacIntel,60.04202942,,,,,,,,,,,,,,,,,,,,,,,,,,,,,,,,,,,,,,,,,,,,,,,,,,,,,,,,,
,,,,right,1,0.4312,2,5,37,15,1,9,200,right,8380,2022-02-13_16h26.15.457,multiplicationStroop,2021.2.3,MacIntel,60.04202942,,,,,,,,,,,,,,,,,,,,,,,,,,,,,,,,,,,,,,,,,,,,,,,,,,,,,,,,,
,,,,right,1,0.3686,2,6,38,14,1,8,200,right,8380,2022-02-13_16h26.15.457,multiplicationStroop,2021.2.3,MacIntel,60.04202942,,,,,,,,,,,,,,,,,,,,,,,,,,,,,,,,,,,,,,,,,,,,,,,,,,,,,,,,,
,,,,right,1,0.9148,2,7,39,9,1,2,200,right,8380,2022-02-13_16h26.15.457,multiplicationStroop,2021.2.3,MacIntel,60.04202942,,,,,,,,,,,,,,,,,,,,,,,,,,,,,,,,,,,,,,,,,,,,,,,,,,,,,,,,,
,,,,left,1,0.4828,2,8,40,3,1,4,-200,left,8380,2022-02-13_16h26.15.457,multiplicationStroop,2021.2.3,MacIntel,60.04202942,,,,,,,,,,,,,,,,,,,,,,,,,,,,,,,,,,,,,,,,,,,,,,,,,,,,,,,,,
,,,,left,1,0.5994,2,9,41,6,1,8,-200,left,8380,2022-02-13_16h26.15.457,multiplicationStroop,2021.2.3,MacIntel,60.04202942,,,,,,,,,,,,,,,,,,,,,,,,,,,,,,,,,,,,,,,,,,,,,,,,,,,,,,,,,
,,,,left,1,0.4372,2,10,42,1,1,2,-200,left,8380,2022-02-13_16h26.15.457,multiplicationStroop,2021.2.3,MacIntel,60.04202942,,,,,,,,,,,,,,,,,,,,,,,,,,,,,,,,,,,,,,,,,,,,,,,,,,,,,,,,,
,,,,left,1,0.4475,2,11,43,7,1,9,-200,left,8380,2022-02-13_16h26.15.457,multiplicationStroop,2021.2.3,MacIntel,60.04202942,,,,,,,,,,,,,,,,,,,,,,,,,,,,,,,,,,,,,,,,,,,,,,,,,,,,,,,,,
,,,,right,1,0.8999,2,12,44,11,1,4,200,right,8380,2022-02-13_16h26.15.457,multiplicationStroop,2021.2.3,MacIntel,60.04202942,,,,,,,,,,,,,,,,,,,,,,,,,,,,,,,,,,,,,,,,,,,,,,,,,,,,,,,,,
,,,,right,1,0.3493,2,13,45,8,1,1,200,right,8380,2022-02-13_16h26.15.457,multiplicationStroop,2021.2.3,MacIntel,60.04202942,,,,,,,,,,,,,,,,,,,,,,,,,,,,,,,,,,,,,,,,,,,,,,,,,,,,,,,,,
,,,,right,1,0.2819,2,14,46,12,1,6,200,right,8380,2022-02-13_16h26.15.457,multiplicationStroop,2021.2.3,MacIntel,60.04202942,,,,,,,,,,,,,,,,,,,,,,,,,,,,,,,,,,,,,,,,,,,,,,,,,,,,,,,,,
,,,,left,1,0.3992,2,15,47,0,1,1,-200,left,8380,2022-02-13_16h26.15.457,multiplicationStroop,2021.2.3,MacIntel,60.04202942,,,,,,,,,,,,,,,,,,,,,,,,,,,,,,,,,,,,,,,,,,,,,,,,,,,,,,,,,
,,,,right,1,0.4033,3,0,48,12,1,6,200,right,8380,2022-02-13_16h26.15.457,multiplicationStroop,2021.2.3,MacIntel,60.04202942,,,,,,,,,,,,,,,,,,,,,,,,,,,,,,,,,,,,,,,,,,,,,,,,,,,,,,,,,
,,,,left,1,0.4201,3,1,49,1,1,2,-200,left,8380,2022-02-13_16h26.15.457,multiplicationStroop,2021.2.3,MacIntel,60.04202942,,,,,,,,,,,,,,,,,,,,,,,,,,,,,,,,,,,,,,,,,,,,,,,,,,,,,,,,,
,,,,left,1,0.4203,3,2,50,7,1,9,-200,left,8380,2022-02-13_16h26.15.457,multiplicationStroop,2021.2.3,MacIntel,60.04202942,,,,,,,,,,,,,,,,,,,,,,,,,,,,,,,,,,,,,,,,,,,,,,,,,,,,,,,,,
,,,,right,1,0.5588,3,3,51,9,1,2,200,right,8380,2022-02-13_16h26.15.457,multiplicationStroop,2021.2.3,MacIntel,60.04202942,,,,,,,,,,,,,,,,,,,,,,,,,,,,,,,,,,,,,,,,,,,,,,,,,,,,,,,,,
,,,,right,1,0.3714,3,4,52,14,1,8,200,right,8380,2022-02-13_16h26.15.457,multiplicationStroop,2021.2.3,MacIntel,60.04202942,,,,,,,,,,,,,,,,,,,,,,,,,,,,,,,,,,,,,,,,,,,,,,,,,,,,,,,,,
,,,,left,1,0.4649,3,5,53,3,1,4,-200,left,8380,2022-02-13_16h26.15.457,multiplicationStroop,2021.2.3,MacIntel,60.04202942,,,,,,,,,,,,,,,,,,,,,,,,,,,,,,,,,,,,,,,,,,,,,,,,,,,,,,,,,
,,,,right,1,0.3756,3,6,54,10,1,3,200,right,8380,2022-02-13_16h26.15.457,multiplicationStroop,2021.2.3,MacIntel,60.04202942,,,,,,,,,,,,,,,,,,,,,,,,,,,,,,,,,,,,,,,,,,,,,,,,,,,,,,,,,
,,,,right,1,0.4317,3,7,55,13,1,7,200,right,8380,2022-02-13_16h26.15.457,multiplicationStroop,2021.2.3,MacIntel,60.04202942,,,,,,,,,,,,,,,,,,,,,,,,,,,,,,,,,,,,,,,,,,,,,,,,,,,,,,,,,
,,,,left,1,0.4678,3,8,56,4,1,6,-200,left,8380,2022-02-13_16h26.15.457,multiplicationStroop,2021.2.3,MacIntel,60.04202942,,,,,,,,,,,,,,,,,,,,,,,,,,,,,,,,,,,,,,,,,,,,,,,,,,,,,,,,,
,,,,left,1,0.3587,3,9,57,0,1,1,-200,left,8380,2022-02-13_16h26.15.457,multiplicationStroop,2021.2.3,MacIntel,60.04202942,,,,,,,,,,,,,,,,,,,,,,,,,,,,,,,,,,,,,,,,,,,,,,,,,,,,,,,,,
,,,,left,1,0.3208,3,10,58,6,1,8,-200,left,8380,2022-02-13_16h26.15.457,multiplicationStroop,2021.2.3,MacIntel,60.04202942,,,,,,,,,,,,,,,,,,,,,,,,,,,,,,,,,,,,,,,,,,,,,,,,,,,,,,,,,
,,,,left,1,0.3122,3,11,59,2,1,3,-200,left,8380,2022-02-13_16h26.15.457,multiplicationStroop,2021.2.3,MacIntel,60.04202942,,,,,,,,,,,,,,,,,,,,,,,,,,,,,,,,,,,,,,,,,,,,,,,,,,,,,,,,,
,,,,right,1,0.445,3,12,60,11,1,4,200,right,8380,2022-02-13_16h26.15.457,multiplicationStroop,2021.2.3,MacIntel,60.04202942,,,,,,,,,,,,,,,,,,,,,,,,,,,,,,,,,,,,,,,,,,,,,,,,,,,,,,,,,
,,,,left,1,0.5517,3,13,61,5,1,7,-200,left,8380,2022-02-13_16h26.15.457,multiplicationStroop,2021.2.3,MacIntel,60.04202942,,,,,,,,,,,,,,,,,,,,,,,,,,,,,,,,,,,,,,,,,,,,,,,,,,,,,,,,,
,,,,right,1,0.3971,3,14,62,8,1,1,200,right,8380,2022-02-13_16h26.15.457,multiplicationStroop,2021.2.3,MacIntel,60.04202942,,,,,,,,,,,,,,,,,,,,,,,,,,,,,,,,,,,,,,,,,,,,,,,,,,,,,,,,,
,,,,right,1,0.5189,3,15,63,15,1,9,200,right,8380,2022-02-13_16h26.15.457,multiplicationStroop,2021.2.3,MacIntel,60.04202942,,,,,,,,,,,,,,,,,,,,,,,,,,,,,,,,,,,,,,,,,,,,,,,,,,,,,,,,,
,,,,,,,,,,,,,,,8380,2022-02-13_16h26.15.457,multiplicationStroop,2021.2.3,MacIntel,60.04202942,space,12.3922,space,17.2968,right,1,0.9692,0,0,0,36,1,3,1,3 | 1,2,1.4111,1.9756,incongruent,right,,,,,,stimulusFile/physical.xlsx,,,,,,,,,,,,,,,,,,,,,,,,,,,,,,,
,,,,,,,,,,,,,,,8380,2022-02-13_16h26.15.457,multiplicationStroop,2021.2.3,MacIntel,60.04202942,,,,,right,1,0.7577,0,1,1,37,1,4,2,4 | 2,2,1.4111,1.9756,incongruent,right,,,,,,stimulusFile/physical.xlsx,,,,,,,,,,,,,,,,,,,,,,,,,,,,,,,
,,,,,,,,,,,,,,,8380,2022-02-13_16h26.15.457,multiplicationStroop,2021.2.3,MacIntel,60.04202942,,,,,right,1,0.9924,0,2,2,47,1,9,4,9 | 4,5,1.4111,1.9756,incongruent,right,,,,,,stimulusFile/physical.xlsx,,,,,,,,,,,,,,,,,,,,,,,,,,,,,,,
,,,,,,,,,,,,,,,8380,2022-02-13_16h26.15.457,multiplicationStroop,2021.2.3,MacIntel,60.04202942,,,,,right,1,0.4655,0,3,3,63,1,9,9,9 | 9,0,1.4111,1.9756,neutral,right,,,,,,stimulusFile/physical.xlsx,,,,,,,,,,,,,,,,,,,,,,,,,,,,,,,
,,,,,,,,,,,,,,,8380,2022-02-13_16h26.15.457,multiplicationStroop,2021.2.3,MacIntel,60.04202942,,,,,right,1,0.7764,0,4,4,58,1,6,6,6 | 6,0,1.4111,1.9756,neutral,right,,,,,,stimulusFile/physical.xlsx,,,,,,,,,,,,,,,,,,,,,,,,,,,,,,,
,,,,,,,,,,,,,,,8380,2022-02-13_16h26.15.457,multiplicationStroop,2021.2.3,MacIntel,60.04202942,,,,,left,1,0.5917,0,5,5,6,1,7,6,7 | 6,1,1.9756,1.4111,congruent,left,,,,,,stimulusFile/physical.xlsx,,,,,,,,,,,,,,,,,,,,,,,,,,,,,,,
,,,,,,,,,,,,,,,8380,2022-02-13_16h26.15.457,multiplicationStroop,2021.2.3,MacIntel,60.04202942,,,,,left,1,0.5283,0,6,6,41,1,2,7,2 | 7,5,1.9756,1.4111,incongruent,left,,,,,,stimulusFile/physical.xlsx,,,,,,,,,,,,,,,,,,,,,,,,,,,,,,,
,,,,,,,,,,,,,,,8380,2022-02-13_16h26.15.457,multiplicationStroop,2021.2.3,MacIntel,60.04202942,,,,,right,1,0.5682,0,7,7,31,1,9,8,9 | 8,1,1.4111,1.9756,incongruent,right,,,,,,stimulusFile/physical.xlsx,,,,,,,,,,,,,,,,,,,,,,,,,,,,,,,
,,,,,,,,,,,,,,,8380,2022-02-13_16h26.15.457,multiplicationStroop,2021.2.3,MacIntel,60.04202942,,,,,right,1,0.5759,0,8,8,30,1,7,6,7 | 6,1,1.4111,1.9756,incongruent,right,,,,,,stimulusFile/physical.xlsx,,,,,,,,,,,,,,,,,,,,,,,,,,,,,,,
,,,,,,,,,,,,,,,8380,2022-02-13_16h26.15.457,multiplicationStroop,2021.2.3,MacIntel,60.04202942,,,,,left,1,0.7602,0,9,9,4,1,2,1,2 | 1,1,1.9756,1.4111,congruent,left,,,,,,stimulusFile/physical.xlsx,,,,,,,,,,,,,,,,,,,,,,,,,,,,,,,
,,,,,,,,,,,,,,,8380,2022-02-13_16h26.15.457,multiplicationStroop,2021.2.3,MacIntel,60.04202942,,,,,left,1,2.1296,0,10,10,7,1,9,8,9 | 8,1,1.9756,1.4111,congruent,left,,,,,,stimulusFile/physical.xlsx,,,,,,,,,,,,,,,,,,,,,,,,,,,,,,,
,,,,,,,,,,,,,,,8380,2022-02-13_16h26.15.457,multiplicationStroop,2021.2.3,MacIntel,60.04202942,,,,,right,1,0.5239,0,11,11,59,1,7,7,7 | 7,0,1.4111,1.9756,neutral,right,,,,,,stimulusFile/physical.xlsx,,,,,,,,,,,,,,,,,,,,,,,,,,,,,,,
,,,,,,,,,,,,,,,8380,2022-02-13_16h26.15.457,multiplicationStroop,2021.2.3,MacIntel,60.04202942,,,,,right,1,0.3954,0,12,12,16,1,1,6,1 | 6,5,1.4111,1.9756,congruent,right,,,,,,stimulusFile/physical.xlsx,,,,,,,,,,,,,,,,,,,,,,,,,,,,,,,
,,,,,,,,,,,,,,,8380,2022-02-13_16h26.15.457,multiplicationStroop,2021.2.3,MacIntel,60.04202942,,,,,right,0,0.5084,0,13,13,69,1,7,7,7 | 7,0,1.4111,1.9756,neutral,left,,,,,,stimulusFile/physical.xlsx,,,,,,,,,,,,,,,,,,,,,,,,,,,,,,,
,,,,,,,,,,,,,,,8380,2022-02-13_16h26.15.457,multiplicationStroop,2021.2.3,MacIntel,60.04202942,,,,,left,1,0.5265,0,14,14,26,1,6,7,6 | 7,1,1.9756,1.4111,incongruent,left,,,,,,stimulusFile/physical.xlsx,,,,,,,,,,,,,,,,,,,,,,,,,,,,,,,
,,,,,,,,,,,,,,,8380,2022-02-13_16h26.15.457,multiplicationStroop,2021.2.3,MacIntel,60.04202942,,,,,left,1,0.584,0,15,15,22,1,8,3,8 | 3,5,1.9756,1.4111,congruent,left,,,,,,stimulusFile/physical.xlsx,,,,,,,,,,,,,,,,,,,,,,,,,,,,,,,
,,,,,,,,,,,,,,,8380,2022-02-13_16h26.15.457,multiplicationStroop,2021.2.3,MacIntel,60.04202942,,,,,left,1,0.5818,0,16,16,68,1,6,6,6 | 6,0,1.9756,1.4111,neutral,left,,,,,,stimulusFile/physical.xlsx,,,,,,,,,,,,,,,,,,,,,,,,,,,,,,,
,,,,,,,,,,,,,,,8380,2022-02-13_16h26.15.457,multiplicationStroop,2021.2.3,MacIntel,60.04202942,,,,,left,1,1.1321,0,17,17,49,1,3,3,3 | 3,0,1.9756,1.4111,neutral,left,,,,,,stimulusFile/physical.xlsx,,,,,,,,,,,,,,,,,,,,,,,,,,,,,,,
,,,,,,,,,,,,,,,8380,2022-02-13_16h26.15.457,multiplicationStroop,2021.2.3,MacIntel,60.04202942,,,,,right,1,0.6179,0,18,18,0,1,1,2,1 | 2,1,1.4111,1.9756,congruent,right,,,,,,stimulusFile/physical.xlsx,,,,,,,,,,,,,,,,,,,,,,,,,,,,,,,
,,,,,,,,,,,,,,,8380,2022-02-13_16h26.15.457,multiplicationStroop,2021.2.3,MacIntel,60.04202942,,,,,right,1,0.559,0,19,19,45,1,7,2,7 | 2,5,1.4111,1.9756,incongruent,right,,,,,,stimulusFile/physical.xlsx,,,,,,,,,,,,,,,,,,,,,,,,,,,,,,,
,,,,,,,,,,,,,,,8380,2022-02-13_16h26.15.457,multiplicationStroop,2021.2.3,MacIntel,60.04202942,,,,,left,1,0.5418,0,20,20,15,1,9,7,9 | 7,2,1.9756,1.4111,congruent,left,,,,,,stimulusFile/physical.xlsx,,,,,,,,,,,,,,,,,,,,,,,,,,,,,,,
,,,,,,,,,,,,,,,8380,2022-02-13_16h26.15.457,multiplicationStroop,2021.2.3,MacIntel,60.04202942,,,,,left,1,0.7398,0,21,21,52,1,2,2,2 | 2,0,1.9756,1.4111,neutral,left,,,,,,stimulusFile/physical.xlsx,,,,,,,,,,,,,,,,,,,,,,,,,,,,,,,
,,,,,,,,,,,,,,,8380,2022-02-13_16h26.15.457,multiplicationStroop,2021.2.3,MacIntel,60.04202942,,,,,left,1,0.6968,0,22,22,40,1,1,6,1 | 6,5,1.9756,1.4111,incongruent,left,,,,,,stimulusFile/physical.xlsx,,,,,,,,,,,,,,,,,,,,,,,,,,,,,,,
,,,,,,,,,,,,,,,8380,2022-02-13_16h26.15.457,multiplicationStroop,2021.2.3,MacIntel,60.04202942,,,,,left,1,0.561,0,23,23,42,1,3,8,3 | 8,5,1.9756,1.4111,incongruent,left,,,,,,stimulusFile/physical.xlsx,,,,,,,,,,,,,,,,,,,,,,,,,,,,,,,
,,,,,,,,,,,,,,,8380,2022-02-13_16h26.15.457,multiplicationStroop,2021.2.3,MacIntel,60.04202942,,,,,right,1,0.6284,0,24,24,61,1,4,4,4 | 4,0,1.4111,1.9756,neutral,right,,,,,,stimulusFile/physical.xlsx,,,,,,,,,,,,,,,,,,,,,,,,,,,,,,,
,,,,,,,,,,,,,,,8380,2022-02-13_16h26.15.457,multiplicationStroop,2021.2.3,MacIntel,60.04202942,,,,,right,1,0.4917,0,25,25,44,1,6,1,6 | 1,5,1.4111,1.9756,incongruent,right,,,,,,stimulusFile/physical.xlsx,,,,,,,,,,,,,,,,,,,,,,,,,,,,,,,
,,,,,,,,,,,,,,,8380,2022-02-13_16h26.15.457,multiplicationStroop,2021.2.3,MacIntel,60.04202942,,,,,left,1,0.6108,0,26,26,35,1,7,9,7 | 9,2,1.9756,1.4111,incongruent,left,,,,,,stimulusFile/physical.xlsx,,,,,,,,,,,,,,,,,,,,,,,,,,,,,,,
,,,,,,,,,,,,,,,8380,2022-02-13_16h26.15.457,multiplicationStroop,2021.2.3,MacIntel,60.04202942,,,,,right,1,0.5404,0,27,27,39,1,9,7,9 | 7,2,1.4111,1.9756,incongruent,right,,,,,,stimulusFile/physical.xlsx,,,,,,,,,,,,,,,,,,,,,,,,,,,,,,,
,,,,,,,,,,,,,,,8380,2022-02-13_16h26.15.457,multiplicationStroop,2021.2.3,MacIntel,60.04202942,,,,,right,1,0.6132,0,28,28,17,1,2,7,2 | 7,5,1.4111,1.9756,congruent,right,,,,,,stimulusFile/physical.xlsx,,,,,,,,,,,,,,,,,,,,,,,,,,,,,,,
,,,,,,,,,,,,,,,8380,2022-02-13_16h26.15.457,multiplicationStroop,2021.2.3,MacIntel,60.04202942,,,,,right,1,0.4777,0,29,29,65,1,2,2,2 | 2,0,1.4111,1.9756,neutral,right,,,,,,stimulusFile/physical.xlsx,,,,,,,,,,,,,,,,,,,,,,,,,,,,,,,
,,,,,,,,,,,,,,,8380,2022-02-13_16h26.15.457,multiplicationStroop,2021.2.3,MacIntel,60.04202942,,,,,right,1,0.6122,0,30,30,18,1,3,8,3 | 8,5,1.4111,1.9756,congruent,right,,,,,,stimulusFile/physical.xlsx,,,,,,,,,,,,,,,,,,,,,,,,,,,,,,,
,,,,,,,,,,,,,,,8380,2022-02-13_16h26.15.457,multiplicationStroop,2021.2.3,MacIntel,60.04202942,,,,,left,1,0.5479,0,31,31,55,1,9,9,9 | 9,0,1.9756,1.4111,neutral,left,,,,,,stimulusFile/physical.xlsx,,,,,,,,,,,,,,,,,,,,,,,,,,,,,,,
,,,,,,,,,,,,,,,8380,2022-02-13_16h26.15.457,multiplicationStroop,2021.2.3,MacIntel,60.04202942,,,,,left,1,0.547,0,32,32,21,1,7,2,7 | 2,5,1.9756,1.4111,congruent,left,,,,,,stimulusFile/physical.xlsx,,,,,,,,,,,,,,,,,,,,,,,,,,,,,,,
,,,,,,,,,,,,,,,8380,2022-02-13_16h26.15.457,multiplicationStroop,2021.2.3,MacIntel,60.04202942,,,,,right,1,0.5464,0,33,33,60,1,3,3,3 | 3,0,1.4111,1.9756,neutral,right,,,,,,stimulusFile/physical.xlsx,,,,,,,,,,,,,,,,,,,,,,,,,,,,,,,
,,,,,,,,,,,,,,,8380,2022-02-13_16h26.15.457,multiplicationStroop,2021.2.3,MacIntel,60.04202942,,,,,right,1,0.5646,0,34,34,67,1,4,4,4 | 4,0,1.4111,1.9756,neutral,right,,,,,,stimulusFile/physical.xlsx,,,,,,,,,,,,,,,,,,,,,,,,,,,,,,,
,,,,,,,,,,,,,,,8380,2022-02-13_16h26.15.457,multiplicationStroop,2021.2.3,MacIntel,60.04202942,,,,,left,1,0.8671,0,35,35,24,1,1,2,1 | 2,1,1.9756,1.4111,incongruent,left,,,,,,stimulusFile/physical.xlsx,,,,,,,,,,,,,,,,,,,,,,,,,,,,,,,
,,,,,,,,,,,,,,,8380,2022-02-13_16h26.15.457,multiplicationStroop,2021.2.3,MacIntel,60.04202942,,,,,left,1,0.6656,0,36,36,32,1,1,3,1 | 3,2,1.9756,1.4111,incongruent,left,,,,,,stimulusFile/physical.xlsx,,,,,,,,,,,,,,,,,,,,,,,,,,,,,,,
,,,,,,,,,,,,,,,8380,2022-02-13_16h26.15.457,multiplicationStroop,2021.2.3,MacIntel,60.04202942,,,,,right,1,0.6929,0,37,37,19,1,4,9,4 | 9,5,1.4111,1.9756,congruent,right,,,,,,stimulusFile/physical.xlsx,,,,,,,,,,,,,,,,,,,,,,,,,,,,,,,
,,,,,,,,,,,,,,,8380,2022-02-13_16h26.15.457,multiplicationStroop,2021.2.3,MacIntel,60.04202942,,,,,right,1,0.5473,0,38,38,29,1,4,3,4 | 3,1,1.4111,1.9756,incongruent,right,,,,,,stimulusFile/physical.xlsx,,,,,,,,,,,,,,,,,,,,,,,,,,,,,,,
,,,,,,,,,,,,,,,8380,2022-02-13_16h26.15.457,multiplicationStroop,2021.2.3,MacIntel,60.04202942,,,,,left,1,0.5649,0,39,39,27,1,8,9,8 | 9,1,1.9756,1.4111,incongruent,left,,,,,,stimulusFile/physical.xlsx,,,,,,,,,,,,,,,,,,,,,,,,,,,,,,,
,,,,,,,,,,,,,,,8380,2022-02-13_16h26.15.457,multiplicationStroop,2021.2.3,MacIntel,60.04202942,,,,,left,1,0.58,0,40,40,48,1,1,1,1 | 1,0,1.9756,1.4111,neutral,left,,,,,,stimulusFile/physical.xlsx,,,,,,,,,,,,,,,,,,,,,,,,,,,,,,,
,,,,,,,,,,,,,,,8380,2022-02-13_16h26.15.457,multiplicationStroop,2021.2.3,MacIntel,60.04202942,,,,,left,0,0.5652,0,41,41,64,1,1,1,1 | 1,0,1.9756,1.4111,neutral,right,,,,,,stimulusFile/physical.xlsx,,,,,,,,,,,,,,,,,,,,,,,,,,,,,,,
,,,,,,,,,,,,,,,8380,2022-02-13_16h26.15.457,multiplicationStroop,2021.2.3,MacIntel,60.04202942,,,,,left,1,0.5817,0,42,42,20,1,6,1,6 | 1,5,1.9756,1.4111,congruent,left,,,,,,stimulusFile/physical.xlsx,,,,,,,,,,,,,,,,,,,,,,,,,,,,,,,
,,,,,,,,,,,,,,,8380,2022-02-13_16h26.15.457,multiplicationStroop,2021.2.3,MacIntel,60.04202942,,,,,right,1,0.6236,0,43,43,10,1,6,8,6 | 8,2,1.4111,1.9756,congruent,right,,,,,,stimulusFile/physical.xlsx,,,,,,,,,,,,,,,,,,,,,,,,,,,,,,,
,,,,,,,,,,,,,,,8380,2022-02-13_16h26.15.457,multiplicationStroop,2021.2.3,MacIntel,60.04202942,,,,,right,1,0.5108,0,44,44,8,1,1,3,1 | 3,2,1.4111,1.9756,congruent,right,,,,,,stimulusFile/physical.xlsx,,,,,,,,,,,,,,,,,,,,,,,,,,,,,,,
,,,,,,,,,,,,,,,8380,2022-02-13_16h26.15.457,multiplicationStroop,2021.2.3,MacIntel,60.04202942,,,,,left,1,0.4652,0,45,45,34,1,6,8,6 | 8,2,1.9756,1.4111,incongruent,left,,,,,,stimulusFile/physical.xlsx,,,,,,,,,,,,,,,,,,,,,,,,,,,,,,,
,,,,,,,,,,,,,,,8380,2022-02-13_16h26.15.457,multiplicationStroop,2021.2.3,MacIntel,60.04202942,,,,,left,1,0.5441,0,46,46,51,1,8,8,8 | 8,0,1.9756,1.4111,neutral,left,,,,,,stimulusFile/physical.xlsx,,,,,,,,,,,,,,,,,,,,,,,,,,,,,,,
,,,,,,,,,,,,,,,8380,2022-02-13_16h26.15.457,multiplicationStroop,2021.2.3,MacIntel,60.04202942,,,,,left,1,0.6491,0,47,47,54,1,7,7,7 | 7,0,1.9756,1.4111,neutral,left,,,,,,stimulusFile/physical.xlsx,,,,,,,,,,,,,,,,,,,,,,,,,,,,,,,
,,,,,,,,,,,,,,,8380,2022-02-13_16h26.15.457,multiplicationStroop,2021.2.3,MacIntel,60.04202942,,,,,left,1,0.5552,0,48,48,43,1,4,9,4 | 9,5,1.9756,1.4111,incongruent,left,,,,,,stimulusFile/physical.xlsx,,,,,,,,,,,,,,,,,,,,,,,,,,,,,,,
,,,,,,,,,,,,,,,8380,2022-02-13_16h26.15.457,multiplicationStroop,2021.2.3,MacIntel,60.04202942,,,,,right,1,1.4429,0,49,49,62,1,8,8,8 | 8,0,1.4111,1.9756,neutral,right,,,,,,stimulusFile/physical.xlsx,,,,,,,,,,,,,,,,,,,,,,,,,,,,,,,
,,,,,,,,,,,,,,,8380,2022-02-13_16h26.15.457,multiplicationStroop,2021.2.3,MacIntel,60.04202942,,,,,right,1,0.876,0,50,50,9,1,2,4,2 | 4,2,1.4111,1.9756,congruent,right,,,,,,stimulusFile/physical.xlsx,,,,,,,,,,,,,,,,,,,,,,,,,,,,,,,
,,,,,,,,,,,,,,,8380,2022-02-13_16h26.15.457,multiplicationStroop,2021.2.3,MacIntel,60.04202942,,,,,right,1,0.646,0,51,51,2,1,6,7,6 | 7,1,1.4111,1.9756,congruent,right,,,,,,stimulusFile/physical.xlsx,,,,,,,,,,,,,,,,,,,,,,,,,,,,,,,
,,,,,,,,,,,,,,,8380,2022-02-13_16h26.15.457,multiplicationStroop,2021.2.3,MacIntel,60.04202942,,,,,left,1,0.5571,0,52,52,12,1,3,1,3 | 1,2,1.9756,1.4111,congruent,left,,,,,,stimulusFile/physical.xlsx,,,,,,,,,,,,,,,,,,,,,,,,,,,,,,,
,,,,,,,,,,,,,,,8380,2022-02-13_16h26.15.457,multiplicationStroop,2021.2.3,MacIntel,60.04202942,,,,,right,1,0.8649,0,53,53,57,1,2,2,2 | 2,0,1.4111,1.9756,neutral,right,,,,,,stimulusFile/physical.xlsx,,,,,,,,,,,,,,,,,,,,,,,,,,,,,,,
,,,,,,,,,,,,,,,8380,2022-02-13_16h26.15.457,multiplicationStroop,2021.2.3,MacIntel,60.04202942,,,,,right,0,0.3989,0,54,54,53,1,4,4,4 | 4,0,1.9756,1.4111,neutral,left,,,,,,stimulusFile/physical.xlsx,,,,,,,,,,,,,,,,,,,,,,,,,,,,,,,
,,,,,,,,,,,,,,,8380,2022-02-13_16h26.15.457,multiplicationStroop,2021.2.3,MacIntel,60.04202942,,,,,left,1,0.5821,0,55,55,13,1,4,2,4 | 2,2,1.9756,1.4111,congruent,left,,,,,,stimulusFile/physical.xlsx,,,,,,,,,,,,,,,,,,,,,,,,,,,,,,,
,,,,,,,,,,,,,,,8380,2022-02-13_16h26.15.457,multiplicationStroop,2021.2.3,MacIntel,60.04202942,,,,,right,0,0.5625,0,56,56,71,1,9,9,9 | 9,0,1.4111,1.9756,neutral,left,,,,,,stimulusFile/physical.xlsx,,,,,,,,,,,,,,,,,,,,,,,,,,,,,,,
,,,,,,,,,,,,,,,8380,2022-02-13_16h26.15.457,multiplicationStroop,2021.2.3,MacIntel,60.04202942,,,,,right,1,0.3943,0,57,57,66,1,3,3,3 | 3,0,1.9756,1.4111,neutral,right,,,,,,stimulusFile/physical.xlsx,,,,,,,,,,,,,,,,,,,,,,,,,,,,,,,
,,,,,,,,,,,,,,,8380,2022-02-13_16h26.15.457,multiplicationStroop,2021.2.3,MacIntel,60.04202942,,,,,right,1,0.5466,0,58,58,3,1,8,9,8 | 9,1,1.4111,1.9756,congruent,right,,,,,,stimulusFile/physical.xlsx,,,,,,,,,,,,,,,,,,,,,,,,,,,,,,,
,,,,,,,,,,,,,,,8380,2022-02-13_16h26.15.457,multiplicationStroop,2021.2.3,MacIntel,60.04202942,,,,,right,1,0.5605,0,59,59,38,1,8,6,8 | 6,2,1.4111,1.9756,incongruent,right,,,,,,stimulusFile/physical.xlsx,,,,,,,,,,,,,,,,,,,,,,,,,,,,,,,
,,,,,,,,,,,,,,,8380,2022-02-13_16h26.15.457,multiplicationStroop,2021.2.3,MacIntel,60.04202942,,,,,right,1,0.5448,0,60,60,11,1,7,9,7 | 9,2,1.4111,1.9756,congruent,right,,,,,,stimulusFile/physical.xlsx,,,,,,,,,,,,,,,,,,,,,,,,,,,,,,,
,,,,,,,,,,,,,,,8380,2022-02-13_16h26.15.457,multiplicationStroop,2021.2.3,MacIntel,60.04202942,,,,,right,1,0.6313,0,61,61,1,1,3,4,3 | 4,1,1.4111,1.9756,congruent,right,,,,,,stimulusFile/physical.xlsx,,,,,,,,,,,,,,,,,,,,,,,,,,,,,,,
,,,,,,,,,,,,,,,8380,2022-02-13_16h26.15.457,multiplicationStroop,2021.2.3,MacIntel,60.04202942,,,,,left,1,1.5889,0,62,62,25,1,3,4,3 | 4,1,1.9756,1.4111,incongruent,left,,,,,,stimulusFile/physical.xlsx,,,,,,,,,,,,,,,,,,,,,,,,,,,,,,,
,,,,,,,,,,,,,,,8380,2022-02-13_16h26.15.457,multiplicationStroop,2021.2.3,MacIntel,60.04202942,,,,,right,1,0.5322,0,63,63,56,1,1,1,1 | 1,0,1.4111,1.9756,neutral,right,,,,,,stimulusFile/physical.xlsx,,,,,,,,,,,,,,,,,,,,,,,,,,,,,,,
,,,,,,,,,,,,,,,8380,2022-02-13_16h26.15.457,multiplicationStroop,2021.2.3,MacIntel,60.04202942,,,,,left,1,1.3397,0,64,64,70,1,8,8,8 | 8,0,1.9756,1.4111,neutral,left,,,,,,stimulusFile/physical.xlsx,,,,,,,,,,,,,,,,,,,,,,,,,,,,,,,
,,,,,,,,,,,,,,,8380,2022-02-13_16h26.15.457,multiplicationStroop,2021.2.3,MacIntel,60.04202942,,,,,right,1,0.4828,0,65,65,28,1,2,1,2 | 1,1,1.4111,1.9756,incongruent,right,,,,,,stimulusFile/physical.xlsx,,,,,,,,,,,,,,,,,,,,,,,,,,,,,,,
,,,,,,,,,,,,,,,8380,2022-02-13_16h26.15.457,multiplicationStroop,2021.2.3,MacIntel,60.04202942,,,,,left,1,0.5487,0,66,66,50,1,6,6,6 | 6,0,1.9756,1.4111,neutral,left,,,,,,stimulusFile/physical.xlsx,,,,,,,,,,,,,,,,,,,,,,,,,,,,,,,
,,,,,,,,,,,,,,,8380,2022-02-13_16h26.15.457,multiplicationStroop,2021.2.3,MacIntel,60.04202942,,,,,left,1,0.6217,0,67,67,14,1,8,6,8 | 6,2,1.9756,1.4111,congruent,left,,,,,,stimulusFile/physical.xlsx,,,,,,,,,,,,,,,,,,,,,,,,,,,,,,,
,,,,,,,,,,,,,,,8380,2022-02-13_16h26.15.457,multiplicationStroop,2021.2.3,MacIntel,60.04202942,,,,,left,1,1.2347,0,68,68,23,1,9,4,9 | 4,5,1.9756,1.4111,congruent,left,,,,,,stimulusFile/physical.xlsx,,,,,,,,,,,,,,,,,,,,,,,,,,,,,,,
,,,,,,,,,,,,,,,8380,2022-02-13_16h26.15.457,multiplicationStroop,2021.2.3,MacIntel,60.04202942,,,,,left,1,0.7986,0,69,69,5,1,4,3,4 | 3,1,1.9756,1.4111,congruent,left,,,,,,stimulusFile/physical.xlsx,,,,,,,,,,,,,,,,,,,,,,,,,,,,,,,
,,,,,,,,,,,,,,,8380,2022-02-13_16h26.15.457,multiplicationStroop,2021.2.3,MacIntel,60.04202942,,,,,left,1,0.5175,0,70,70,33,1,2,4,2 | 4,2,1.9756,1.4111,incongruent,left,,,,,,stimulusFile/physical.xlsx,,,,,,,,,,,,,,,,,,,,,,,,,,,,,,,
,,,,,,,,,,,,,,,8380,2022-02-13_16h26.15.457,multiplicationStroop,2021.2.3,MacIntel,60.04202942,,,,,right,1,0.5777,0,71,71,46,1,8,3,8 | 3,5,1.4111,1.9756,incongruent,right,,,,,,stimulusFile/physical.xlsx,,,,,,,,,,,,,,,,,,,,,,,,,,,,,,,
,,,,,,,,,,,,,,,8380,2022-02-13_16h26.15.457,multiplicationStroop,2021.2.3,MacIntel,60.04202942,,,,,,,,,,,,,,,,,,,,,0,0,0,1,1,stimulusFile/physical.xlsx,PHYSICALLY larger (larger font size).,images/physicallyLarger.png,,,,,,,,,,,,,,,,,,,,,,,,,,,,,
,,,,,,,,,,,,,,,8380,2022-02-13_16h26.15.457,multiplicationStroop,2021.2.3,MacIntel,60.04202942,space,19.8458,space,6.7829,right,0,0.5605,0,0,0,45,1,7,2,7 | 2,5,1.4111,1.9756,incongruent,left,,,,,,stimulusFile/magnitude.xlsx,,,,,,,,,,,,,,,,,,,,,,,,,,,,,,,
,,,,,,,,,,,,,,,8380,2022-02-13_16h26.15.457,multiplicationStroop,2021.2.3,MacIntel,60.04202942,,,,,left,1,0.7106,0,1,1,6,1,7,6,7 | 6,1,1.9756,1.4111,congruent,left,,,,,,stimulusFile/magnitude.xlsx,,,,,,,,,,,,,,,,,,,,,,,,,,,,,,,
,,,,,,,,,,,,,,,8380,2022-02-13_16h26.15.457,multiplicationStroop,2021.2.3,MacIntel,60.04202942,,,,,left,1,1.1938,0,2,2,63,1,9,7,9 | 7,2,1.6933,1.6933,neutral,left,,,,,,stimulusFile/magnitude.xlsx,,,,,,,,,,,,,,,,,,,,,,,,,,,,,,,
,,,,,,,,,,,,,,,8380,2022-02-13_16h26.15.457,multiplicationStroop,2021.2.3,MacIntel,60.04202942,,,,,right,0,0.6571,0,3,3,36,1,3,1,3 | 1,2,1.4111,1.9756,incongruent,left,,,,,,stimulusFile/magnitude.xlsx,,,,,,,,,,,,,,,,,,,,,,,,,,,,,,,
,,,,,,,,,,,,,,,8380,2022-02-13_16h26.15.457,multiplicationStroop,2021.2.3,MacIntel,60.04202942,,,,,right,1,1.2243,0,4,4,3,1,8,9,8 | 9,1,1.4111,1.9756,congruent,right,,,,,,stimulusFile/magnitude.xlsx,,,,,,,,,,,,,,,,,,,,,,,,,,,,,,,
,,,,,,,,,,,,,,,8380,2022-02-13_16h26.15.457,multiplicationStroop,2021.2.3,MacIntel,60.04202942,,,,,right,1,1.1096,0,5,5,35,1,7,9,7 | 9,2,1.9756,1.4111,incongruent,right,,,,,,stimulusFile/magnitude.xlsx,,,,,,,,,,,,,,,,,,,,,,,,,,,,,,,
,,,,,,,,,,,,,,,8380,2022-02-13_16h26.15.457,multiplicationStroop,2021.2.3,MacIntel,60.04202942,,,,,right,1,0.7482,0,6,6,24,1,1,2,1 | 2,1,1.9756,1.4111,incongruent,right,,,,,,stimulusFile/magnitude.xlsx,,,,,,,,,,,,,,,,,,,,,,,,,,,,,,,
,,,,,,,,,,,,,,,8380,2022-02-13_16h26.15.457,multiplicationStroop,2021.2.3,MacIntel,60.04202942,,,,,left,1,0.6806,0,7,7,4,1,2,1,2 | 1,1,1.9756,1.4111,congruent,left,,,,,,stimulusFile/magnitude.xlsx,,,,,,,,,,,,,,,,,,,,,,,,,,,,,,,
,,,,,,,,,,,,,,,8380,2022-02-13_16h26.15.457,multiplicationStroop,2021.2.3,MacIntel,60.04202942,,,,,right,1,0.8773,0,8,8,19,1,4,9,4 | 9,5,1.4111,1.9756,congruent,right,,,,,,stimulusFile/magnitude.xlsx,,,,,,,,,,,,,,,,,,,,,,,,,,,,,,,
,,,,,,,,,,,,,,,8380,2022-02-13_16h26.15.457,multiplicationStroop,2021.2.3,MacIntel,60.04202942,,,,,left,1,0.6575,0,9,9,23,1,9,4,9 | 4,5,1.9756,1.4111,congruent,left,,,,,,stimulusFile/magnitude.xlsx,,,,,,,,,,,,,,,,,,,,,,,,,,,,,,,
,,,,,,,,,,,,,,,8380,2022-02-13_16h26.15.457,multiplicationStroop,2021.2.3,MacIntel,60.04202942,,,,,left,1,1.2603,0,10,10,39,1,9,7,9 | 7,2,1.4111,1.9756,incongruent,left,,,,,,stimulusFile/magnitude.xlsx,,,,,,,,,,,,,,,,,,,,,,,,,,,,,,,
,,,,,,,,,,,,,,,8380,2022-02-13_16h26.15.457,multiplicationStroop,2021.2.3,MacIntel,60.04202942,,,,,left,1,0.9735,0,11,11,22,1,8,3,8 | 3,5,1.9756,1.4111,congruent,left,,,,,,stimulusFile/magnitude.xlsx,,,,,,,,,,,,,,,,,,,,,,,,,,,,,,,
,,,,,,,,,,,,,,,8380,2022-02-13_16h26.15.457,multiplicationStroop,2021.2.3,MacIntel,60.04202942,,,,,right,1,2.5259,0,12,12,58,1,6,8,6 | 8,2,1.6933,1.6933,neutral,right,,,,,,stimulusFile/magnitude.xlsx,,,,,,,,,,,,,,,,,,,,,,,,,,,,,,,
,,,,,,,,,,,,,,,8380,2022-02-13_16h26.15.457,multiplicationStroop,2021.2.3,MacIntel,60.04202942,,,,,right,1,0.8952,0,13,13,8,1,1,3,1 | 3,2,1.4111,1.9756,congruent,right,,,,,,stimulusFile/magnitude.xlsx,,,,,,,,,,,,,,,,,,,,,,,,,,,,,,,
,,,,,,,,,,,,,,,8380,2022-02-13_16h26.15.457,multiplicationStroop,2021.2.3,MacIntel,60.04202942,,,,,right,1,0.7663,0,14,14,9,1,2,4,2 | 4,2,1.4111,1.9756,congruent,right,,,,,,stimulusFile/magnitude.xlsx,,,,,,,,,,,,,,,,,,,,,,,,,,,,,,,
,,,,,,,,,,,,,,,8380,2022-02-13_16h26.15.457,multiplicationStroop,2021.2.3,MacIntel,60.04202942,,,,,left,1,0.8944,0,15,15,5,1,4,3,4 | 3,1,1.9756,1.4111,congruent,left,,,,,,stimulusFile/magnitude.xlsx,,,,,,,,,,,,,,,,,,,,,,,,,,,,,,,
,,,,,,,,,,,,,,,8380,2022-02-13_16h26.15.457,multiplicationStroop,2021.2.3,MacIntel,60.04202942,,,,,left,1,0.7326,0,16,16,13,1,4,2,4 | 2,2,1.9756,1.4111,congruent,left,,,,,,stimulusFile/magnitude.xlsx,,,,,,,,,,,,,,,,,,,,,,,,,,,,,,,
,,,,,,,,,,,,,,,8380,2022-02-13_16h26.15.457,multiplicationStroop,2021.2.3,MacIntel,60.04202942,,,,,left,1,0.8281,0,17,17,70,1,8,3,8 | 3,5,1.6933,1.6933,neutral,left,,,,,,stimulusFile/magnitude.xlsx,,,,,,,,,,,,,,,,,,,,,,,,,,,,,,,
,,,,,,,,,,,,,,,8380,2022-02-13_16h26.15.457,multiplicationStroop,2021.2.3,MacIntel,60.04202942,,,,,left,1,0.9437,0,18,18,44,1,6,1,6 | 1,5,1.4111,1.9756,incongruent,left,,,,,,stimulusFile/magnitude.xlsx,,,,,,,,,,,,,,,,,,,,,,,,,,,,,,,
,,,,,,,,,,,,,,,8380,2022-02-13_16h26.15.457,multiplicationStroop,2021.2.3,MacIntel,60.04202942,,,,,left,1,0.9438,0,19,19,52,1,2,1,2 | 1,1,1.6933,1.6933,neutral,left,,,,,,stimulusFile/magnitude.xlsx,,,,,,,,,,,,,,,,,,,,,,,,,,,,,,,
,,,,,,,,,,,,,,,8380,2022-02-13_16h26.15.457,multiplicationStroop,2021.2.3,MacIntel,60.04202942,,,,,right,1,0.6961,0,20,20,40,1,1,6,1 | 6,5,1.9756,1.4111,incongruent,right,,,,,,stimulusFile/magnitude.xlsx,,,,,,,,,,,,,,,,,,,,,,,,,,,,,,,
,,,,,,,,,,,,,,,8380,2022-02-13_16h26.15.457,multiplicationStroop,2021.2.3,MacIntel,60.04202942,,,,,right,1,0.5253,0,21,21,16,1,1,6,1 | 6,5,1.4111,1.9756,congruent,right,,,,,,stimulusFile/magnitude.xlsx,,,,,,,,,,,,,,,,,,,,,,,,,,,,,,,
,,,,,,,,,,,,,,,8380,2022-02-13_16h26.15.457,multiplicationStroop,2021.2.3,MacIntel,60.04202942,,,,,right,1,0.7125,0,22,22,32,1,1,3,1 | 3,2,1.9756,1.4111,incongruent,right,,,,,,stimulusFile/magnitude.xlsx,,,,,,,,,,,,,,,,,,,,,,,,,,,,,,,
,,,,,,,,,,,,,,,8380,2022-02-13_16h26.15.457,multiplicationStroop,2021.2.3,MacIntel,60.04202942,,,,,right,1,1.108,0,23,23,34,1,6,8,6 | 8,2,1.9756,1.4111,incongruent,right,,,,,,stimulusFile/magnitude.xlsx,,,,,,,,,,,,,,,,,,,,,,,,,,,,,,,
,,,,,,,,,,,,,,,8380,2022-02-13_16h26.15.457,multiplicationStroop,2021.2.3,MacIntel,60.04202942,,,,,left,1,0.9863,0,24,24,29,1,4,3,4 | 3,1,1.4111,1.9756,incongruent,left,,,,,,stimulusFile/magnitude.xlsx,,,,,,,,,,,,,,,,,,,,,,,,,,,,,,,
,,,,,,,,,,,,,,,8380,2022-02-13_16h26.15.457,multiplicationStroop,2021.2.3,MacIntel,60.04202942,,,,,right,1,0.5943,0,25,25,66,1,3,8,3 | 8,5,1.6933,1.6933,neutral,right,,,,,,stimulusFile/magnitude.xlsx,,,,,,,,,,,,,,,,,,,,,,,,,,,,,,,
,,,,,,,,,,,,,,,8380,2022-02-13_16h26.15.457,multiplicationStroop,2021.2.3,MacIntel,60.04202942,,,,,left,1,1.6742,0,26,26,53,1,4,3,4 | 3,1,1.6933,1.6933,neutral,left,,,,,,stimulusFile/magnitude.xlsx,,,,,,,,,,,,,,,,,,,,,,,,,,,,,,,
,,,,,,,,,,,,,,,8380,2022-02-13_16h26.15.457,multiplicationStroop,2021.2.3,MacIntel,60.04202942,,,,,left,1,1.1249,0,27,27,37,1,4,2,4 | 2,2,1.4111,1.9756,incongruent,left,,,,,,stimulusFile/magnitude.xlsx,,,,,,,,,,,,,,,,,,,,,,,,,,,,,,,
,,,,,,,,,,,,,,,8380,2022-02-13_16h26.15.457,multiplicationStroop,2021.2.3,MacIntel,60.04202942,,,,,right,1,1.1276,0,28,28,56,1,1,3,1 | 3,2,1.6933,1.6933,neutral,right,,,,,,stimulusFile/magnitude.xlsx,,,,,,,,,,,,,,,,,,,,,,,,,,,,,,,
,,,,,,,,,,,,,,,8380,2022-02-13_16h26.15.457,multiplicationStroop,2021.2.3,MacIntel,60.04202942,,,,,left,1,1.2436,0,29,29,69,1,7,2,7 | 2,5,1.6933,1.6933,neutral,left,,,,,,stimulusFile/magnitude.xlsx,,,,,,,,,,,,,,,,,,,,,,,,,,,,,,,
,,,,,,,,,,,,,,,8380,2022-02-13_16h26.15.457,multiplicationStroop,2021.2.3,MacIntel,60.04202942,,,,,right,1,1.0721,0,30,30,10,1,6,8,6 | 8,2,1.4111,1.9756,congruent,right,,,,,,stimulusFile/magnitude.xlsx,,,,,,,,,,,,,,,,,,,,,,,,,,,,,,,
,,,,,,,,,,,,,,,8380,2022-02-13_16h26.15.457,multiplicationStroop,2021.2.3,MacIntel,60.04202942,,,,,right,1,1.1041,0,31,31,48,1,1,2,1 | 2,1,1.6933,1.6933,neutral,right,,,,,,stimulusFile/magnitude.xlsx,,,,,,,,,,,,,,,,,,,,,,,,,,,,,,,
,,,,,,,,,,,,,,,8380,2022-02-13_16h26.15.457,multiplicationStroop,2021.2.3,MacIntel,60.04202942,,,,,left,1,1.2101,0,32,32,71,1,9,4,9 | 4,5,1.6933,1.6933,neutral,left,,,,,,stimulusFile/magnitude.xlsx,,,,,,,,,,,,,,,,,,,,,,,,,,,,,,,
,,,,,,,,,,,,,,,8380,2022-02-13_16h26.15.457,multiplicationStroop,2021.2.3,MacIntel,60.04202942,,,,,right,1,1.8947,0,33,33,25,1,3,4,3 | 4,1,1.9756,1.4111,incongruent,right,,,,,,stimulusFile/magnitude.xlsx,,,,,,,,,,,,,,,,,,,,,,,,,,,,,,,
,,,,,,,,,,,,,,,8380,2022-02-13_16h26.15.457,multiplicationStroop,2021.2.3,MacIntel,60.04202942,,,,,left,1,1.0323,0,34,34,47,1,9,4,9 | 4,5,1.4111,1.9756,incongruent,left,,,,,,stimulusFile/magnitude.xlsx,,,,,,,,,,,,,,,,,,,,,,,,,,,,,,,
,,,,,,,,,,,,,,,8380,2022-02-13_16h26.15.457,multiplicationStroop,2021.2.3,MacIntel,60.04202942,,,,,right,1,0.5289,0,35,35,64,1,1,6,1 | 6,5,1.6933,1.6933,neutral,right,,,,,,stimulusFile/magnitude.xlsx,,,,,,,,,,,,,,,,,,,,,,,,,,,,,,,
,,,,,,,,,,,,,,,8380,2022-02-13_16h26.15.457,multiplicationStroop,2021.2.3,MacIntel,60.04202942,,,,,right,1,1.4323,0,36,36,1,1,3,4,3 | 4,1,1.4111,1.9756,congruent,right,,,,,,stimulusFile/magnitude.xlsx,,,,,,,,,,,,,,,,,,,,,,,,,,,,,,,
,,,,,,,,,,,,,,,8380,2022-02-13_16h26.15.457,multiplicationStroop,2021.2.3,MacIntel,60.04202942,,,,,left,1,1.1962,0,37,37,54,1,7,6,7 | 6,1,1.6933,1.6933,neutral,left,,,,,,stimulusFile/magnitude.xlsx,,,,,,,,,,,,,,,,,,,,,,,,,,,,,,,
,,,,,,,,,,,,,,,8380,2022-02-13_16h26.15.457,multiplicationStroop,2021.2.3,MacIntel,60.04202942,,,,,left,1,1.2752,0,38,38,28,1,2,1,2 | 1,1,1.4111,1.9756,incongruent,left,,,,,,stimulusFile/magnitude.xlsx,,,,,,,,,,,,,,,,,,,,,,,,,,,,,,,
,,,,,,,,,,,,,,,8380,2022-02-13_16h26.15.457,multiplicationStroop,2021.2.3,MacIntel,60.04202942,,,,,right,1,1.5394,0,39,39,49,1,3,4,3 | 4,1,1.6933,1.6933,neutral,right,,,,,,stimulusFile/magnitude.xlsx,,,,,,,,,,,,,,,,,,,,,,,,,,,,,,,
,,,,,,,,,,,,,,,8380,2022-02-13_16h26.15.457,multiplicationStroop,2021.2.3,MacIntel,60.04202942,,,,,right,1,0.6643,0,40,40,33,1,2,4,2 | 4,2,1.9756,1.4111,incongruent,right,,,,,,stimulusFile/magnitude.xlsx,,,,,,,,,,,,,,,,,,,,,,,,,,,,,,,
,,,,,,,,,,,,,,,8380,2022-02-13_16h26.15.457,multiplicationStroop,2021.2.3,MacIntel,60.04202942,,,,,left,1,0.8635,0,41,41,7,1,9,8,9 | 8,1,1.9756,1.4111,congruent,left,,,,,,stimulusFile/magnitude.xlsx,,,,,,,,,,,,,,,,,,,,,,,,,,,,,,,
,,,,,,,,,,,,,,,8380,2022-02-13_16h26.15.457,multiplicationStroop,2021.2.3,MacIntel,60.04202942,,,,,left,1,0.9397,0,42,42,46,1,8,3,8 | 3,5,1.4111,1.9756,incongruent,left,,,,,,stimulusFile/magnitude.xlsx,,,,,,,,,,,,,,,,,,,,,,,,,,,,,,,
,,,,,,,,,,,,,,,8380,2022-02-13_16h26.15.457,multiplicationStroop,2021.2.3,MacIntel,60.04202942,,,,,left,1,1.61,0,43,43,14,1,8,6,8 | 6,2,1.9756,1.4111,congruent,left,,,,,,stimulusFile/magnitude.xlsx,,,,,,,,,,,,,,,,,,,,,,,,,,,,,,,
,,,,,,,,,,,,,,,8380,2022-02-13_16h26.15.457,multiplicationStroop,2021.2.3,MacIntel,60.04202942,,,,,right,1,0.878,0,44,44,67,1,4,9,4 | 9,5,1.6933,1.6933,neutral,right,,,,,,stimulusFile/magnitude.xlsx,,,,,,,,,,,,,,,,,,,,,,,,,,,,,,,
,,,,,,,,,,,,,,,8380,2022-02-13_16h26.15.457,multiplicationStroop,2021.2.3,MacIntel,60.04202942,,,,,left,1,0.7976,0,45,45,31,1,9,8,9 | 8,1,1.4111,1.9756,incongruent,left,,,,,,stimulusFile/magnitude.xlsx,,,,,,,,,,,,,,,,,,,,,,,,,,,,,,,
,,,,,,,,,,,,,,,8380,2022-02-13_16h26.15.457,multiplicationStroop,2021.2.3,MacIntel,60.04202942,,,,,right,1,0.5606,0,46,46,0,1,1,2,1 | 2,1,1.4111,1.9756,congruent,right,,,,,,stimulusFile/magnitude.xlsx,,,,,,,,,,,,,,,,,,,,,,,,,,,,,,,
,,,,,,,,,,,,,,,8380,2022-02-13_16h26.15.457,multiplicationStroop,2021.2.3,MacIntel,60.04202942,,,,,left,1,1.0601,0,47,47,12,1,3,1,3 | 1,2,1.9756,1.4111,congruent,left,,,,,,stimulusFile/magnitude.xlsx,,,,,,,,,,,,,,,,,,,,,,,,,,,,,,,
,,,,,,,,,,,,,,,8380,2022-02-13_16h26.15.457,multiplicationStroop,2021.2.3,MacIntel,60.04202942,,,,,left,1,1.6518,0,48,48,20,1,6,1,6 | 1,5,1.9756,1.4111,congruent,left,,,,,,stimulusFile/magnitude.xlsx,,,,,,,,,,,,,,,,,,,,,,,,,,,,,,,
,,,,,,,,,,,,,,,8380,2022-02-13_16h26.15.457,multiplicationStroop,2021.2.3,MacIntel,60.04202942,,,,,right,1,0.7484,0,49,49,65,1,2,7,2 | 7,5,1.6933,1.6933,neutral,right,,,,,,stimulusFile/magnitude.xlsx,,,,,,,,,,,,,,,,,,,,,,,,,,,,,,,
,,,,,,,,,,,,,,,8380,2022-02-13_16h26.15.457,multiplicationStroop,2021.2.3,MacIntel,60.04202942,,,,,left,1,0.8841,0,50,50,60,1,3,1,3 | 1,2,1.6933,1.6933,neutral,left,,,,,,stimulusFile/magnitude.xlsx,,,,,,,,,,,,,,,,,,,,,,,,,,,,,,,
,,,,,,,,,,,,,,,8380,2022-02-13_16h26.15.457,multiplicationStroop,2021.2.3,MacIntel,60.04202942,,,,,left,1,1.0155,0,51,51,55,1,9,8,9 | 8,1,1.6933,1.6933,neutral,left,,,,,,stimulusFile/magnitude.xlsx,,,,,,,,,,,,,,,,,,,,,,,,,,,,,,,
,,,,,,,,,,,,,,,8380,2022-02-13_16h26.15.457,multiplicationStroop,2021.2.3,MacIntel,60.04202942,,,,,right,1,1.1079,0,52,52,2,1,6,7,6 | 7,1,1.4111,1.9756,congruent,right,,,,,,stimulusFile/magnitude.xlsx,,,,,,,,,,,,,,,,,,,,,,,,,,,,,,,
,,,,,,,,,,,,,,,8380,2022-02-13_16h26.15.457,multiplicationStroop,2021.2.3,MacIntel,60.04202942,,,,,right,1,0.7155,0,53,53,42,1,3,8,3 | 8,5,1.9756,1.4111,incongruent,right,,,,,,stimulusFile/magnitude.xlsx,,,,,,,,,,,,,,,,,,,,,,,,,,,,,,,
,,,,,,,,,,,,,,,8380,2022-02-13_16h26.15.457,multiplicationStroop,2021.2.3,MacIntel,60.04202942,,,,,right,1,0.9116,0,54,54,27,1,8,9,8 | 9,1,1.9756,1.4111,incongruent,right,,,,,,stimulusFile/magnitude.xlsx,,,,,,,,,,,,,,,,,,,,,,,,,,,,,,,
,,,,,,,,,,,,,,,8380,2022-02-13_16h26.15.457,multiplicationStroop,2021.2.3,MacIntel,60.04202942,,,,,left,1,0.7439,0,55,55,15,1,9,7,9 | 7,2,1.9756,1.4111,congruent,left,,,,,,stimulusFile/magnitude.xlsx,,,,,,,,,,,,,,,,,,,,,,,,,,,,,,,
,,,,,,,,,,,,,,,8380,2022-02-13_16h26.15.457,multiplicationStroop,2021.2.3,MacIntel,60.04202942,,,,,left,1,3.5969,0,56,56,68,1,6,1,6 | 1,5,1.6933,1.6933,neutral,left,,,,,,stimulusFile/magnitude.xlsx,,,,,,,,,,,,,,,,,,,,,,,,,,,,,,,
,,,,,,,,,,,,,,,8380,2022-02-13_16h26.15.457,multiplicationStroop,2021.2.3,MacIntel,60.04202942,,,,,right,1,0.9121,0,57,57,57,1,2,4,2 | 4,2,1.6933,1.6933,neutral,right,,,,,,stimulusFile/magnitude.xlsx,,,,,,,,,,,,,,,,,,,,,,,,,,,,,,,
,,,,,,,,,,,,,,,8380,2022-02-13_16h26.15.457,multiplicationStroop,2021.2.3,MacIntel,60.04202942,,,,,left,0,0.5718,0,58,58,26,1,6,7,6 | 7,1,1.9756,1.4111,incongruent,right,,,,,,stimulusFile/magnitude.xlsx,,,,,,,,,,,,,,,,,,,,,,,,,,,,,,,
,,,,,,,,,,,,,,,8380,2022-02-13_16h26.15.457,multiplicationStroop,2021.2.3,MacIntel,60.04202942,,,,,right,1,1.0475,0,59,59,51,1,8,9,8 | 9,1,1.6933,1.6933,neutral,right,,,,,,stimulusFile/magnitude.xlsx,,,,,,,,,,,,,,,,,,,,,,,,,,,,,,,
,,,,,,,,,,,,,,,8380,2022-02-13_16h26.15.457,multiplicationStroop,2021.2.3,MacIntel,60.04202942,,,,,left,1,1.5118,0,60,60,21,1,7,2,7 | 2,5,1.9756,1.4111,congruent,left,,,,,,stimulusFile/magnitude.xlsx,,,,,,,,,,,,,,,,,,,,,,,,,,,,,,,
,,,,,,,,,,,,,,,8380,2022-02-13_16h26.15.457,multiplicationStroop,2021.2.3,MacIntel,60.04202942,,,,,left,1,0.6292,0,61,61,61,1,4,2,4 | 2,2,1.6933,1.6933,neutral,left,,,,,,stimulusFile/magnitude.xlsx,,,,,,,,,,,,,,,,,,,,,,,,,,,,,,,
,,,,,,,,,,,,,,,8380,2022-02-13_16h26.15.457,multiplicationStroop,2021.2.3,MacIntel,60.04202942,,,,,right,1,0.764,0,62,62,50,1,6,7,6 | 7,1,1.6933,1.6933,neutral,right,,,,,,stimulusFile/magnitude.xlsx,,,,,,,,,,,,,,,,,,,,,,,,,,,,,,,
,,,,,,,,,,,,,,,8380,2022-02-13_16h26.15.457,multiplicationStroop,2021.2.3,MacIntel,60.04202942,,,,,left,1,0.8844,0,63,63,38,1,8,6,8 | 6,2,1.4111,1.9756,incongruent,left,,,,,,stimulusFile/magnitude.xlsx,,,,,,,,,,,,,,,,,,,,,,,,,,,,,,,
,,,,,,,,,,,,,,,8380,2022-02-13_16h26.15.457,multiplicationStroop,2021.2.3,MacIntel,60.04202942,,,,,right,1,0.5458,0,64,64,17,1,2,7,2 | 7,5,1.4111,1.9756,congruent,right,,,,,,stimulusFile/magnitude.xlsx,,,,,,,,,,,,,,,,,,,,,,,,,,,,,,,
,,,,,,,,,,,,,,,8380,2022-02-13_16h26.15.457,multiplicationStroop,2021.2.3,MacIntel,60.04202942,,,,,right,1,0.7615,0,65,65,59,1,7,9,7 | 9,2,1.6933,1.6933,neutral,right,,,,,,stimulusFile/magnitude.xlsx,,,,,,,,,,,,,,,,,,,,,,,,,,,,,,,
,,,,,,,,,,,,,,,8380,2022-02-13_16h26.15.457,multiplicationStroop,2021.2.3,MacIntel,60.04202942,,,,,right,1,0.6806,0,66,66,41,1,2,7,2 | 7,5,1.9756,1.4111,incongruent,right,,,,,,stimulusFile/magnitude.xlsx,,,,,,,,,,,,,,,,,,,,,,,,,,,,,,,
,,,,,,,,,,,,,,,8380,2022-02-13_16h26.15.457,multiplicationStroop,2021.2.3,MacIntel,60.04202942,,,,,right,1,1.1609,0,67,67,43,1,4,9,4 | 9,5,1.9756,1.4111,incongruent,right,,,,,,stimulusFile/magnitude.xlsx,,,,,,,,,,,,,,,,,,,,,,,,,,,,,,,
,,,,,,,,,,,,,,,8380,2022-02-13_16h26.15.457,multiplicationStroop,2021.2.3,MacIntel,60.04202942,,,,,right,1,0.8238,0,68,68,18,1,3,8,3 | 8,5,1.4111,1.9756,congruent,right,,,,,,stimulusFile/magnitude.xlsx,,,,,,,,,,,,,,,,,,,,,,,,,,,,,,,
,,,,,,,,,,,,,,,8380,2022-02-13_16h26.15.457,multiplicationStroop,2021.2.3,MacIntel,60.04202942,,,,,left,1,1.1086,0,69,69,62,1,8,6,8 | 6,2,1.6933,1.6933,neutral,left,,,,,,stimulusFile/magnitude.xlsx,,,,,,,,,,,,,,,,,,,,,,,,,,,,,,,
,,,,,,,,,,,,,,,8380,2022-02-13_16h26.15.457,multiplicationStroop,2021.2.3,MacIntel,60.04202942,,,,,left,1,1.5313,0,70,70,30,1,7,6,7 | 6,1,1.4111,1.9756,incongruent,left,,,,,,stimulusFile/magnitude.xlsx,,,,,,,,,,,,,,,,,,,,,,,,,,,,,,,
,,,,,,,,,,,,,,,8380,2022-02-13_16h26.15.457,multiplicationStroop,2021.2.3,MacIntel,60.04202942,,,,,right,1,0.6158,0,71,71,11,1,7,9,7 | 9,2,1.4111,1.9756,congruent,right,,,,,,stimulusFile/magnitude.xlsx,,,,,,,,,,,,,,,,,,,,,,,,,,,,,,,
,,,,,,,,,,,,,,,8380,2022-02-13_16h26.15.457,multiplicationStroop,2021.2.3,MacIntel,60.04202942,,,,,,,,,,,,,,,,,,,,,0,1,1,0,1,stimulusFile/magnitude.xlsx,NUMERICALLY larger (larger coefficient).,images/numericallyLarger.png,,,,,,,,,,,,,,,,,,,,,,,,,,,,,
,,,,,,,,,,,,,,,8380,2022-02-13_16h26.15.457,multiplicationStroop,2021.2.3,MacIntel,60.04202942,,,,,,,,,,,,,,,,,,,,,,,,,,,,,space,67.2368,space,1.3057,9,8.5945,0,0,0,0,8,1,3,×,6,3 × 6,incongruent,smallerFirst,2,1,18,,,,,,,,
,,,,,,,,,,,,,,,8380,2022-02-13_16h26.15.457,multiplicationStroop,2021.2.3,MacIntel,60.04202942,,,,,,,,,,,,,,,,,,,,,,,,,,,,,,,,,36,3.4261,1,0,1,1,32,1,6,×,6,6 × 6,incongruent,tie,1,2,36,,,,,,,,
,,,,,,,,,,,,,,,8380,2022-02-13_16h26.15.457,multiplicationStroop,2021.2.3,MacIntel,60.04202942,,,,,,,,,,,,,,,,,,,,,,,,,,,,,,,,,14,2.3136,1,0,2,2,4,1,2,×,7,2 × 7,incongruent,smallerFirst,2,1,14,,,,,,,,
,,,,,,,,,,,,,,,8380,2022-02-13_16h26.15.457,multiplicationStroop,2021.2.3,MacIntel,60.04202942,,,,,,,,,,,,,,,,,,,,,,,,,,,,,,,,,81,2.3481,1,0,3,3,35,1,9,×,9,9 × 9,incongruent,tie,1,2,81,,,,,,,,
,,,,,,,,,,,,,,,8380,2022-02-13_16h26.15.457,multiplicationStroop,2021.2.3,MacIntel,60.04202942,,,,,,,,,,,,,,,,,,,,,,,,,,,,,,,,,15,4.3808,1,0,4,4,10,1,3,×,5,3 × 5,incongruent,smallerFirst,2,1,15,,,,,,,,
,,,,,,,,,,,,,,,8380,2022-02-13_16h26.15.457,multiplicationStroop,2021.2.3,MacIntel,60.04202942,,,,,,,,,,,,,,,,,,,,,,,,,,,,,,,,,12,2.2321,1,0,5,5,5,1,3,×,4,3 × 4,incongruent,smallerFirst,2,1,12,,,,,,,,
,,,,,,,,,,,,,,,8380,2022-02-13_16h26.15.457,multiplicationStroop,2021.2.3,MacIntel,60.04202942,,,,,,,,,,,,,,,,,,,,,,,,,,,,,,,,,25,4.264,1,0,6,6,31,1,5,×,5,5 × 5,incongruent,tie,1,2,25,,,,,,,,
,,,,,,,,,,,,,,,8380,2022-02-13_16h26.15.457,multiplicationStroop,2021.2.3,MacIntel,60.04202942,,,,,,,,,,,,,,,,,,,,,,,,,,,,,,,,,11,29.107,0,0,7,7,9,1,3,×,8,3 × 8,incongruent,smallerFirst,2,1,24,,,,,,,,
,,,,,,,,,,,,,,,8380,2022-02-13_16h26.15.457,multiplicationStroop,2021.2.3,MacIntel,60.04202942,,,,,,,,,,,,,,,,,,,,,,,,,,,,,,,,,56,5.2792,1,0,8,8,14,1,8,×,7,8 × 7,incongruent,largerFirst,1,2,56,,,,,,,,
,,,,,,,,,,,,,,,8380,2022-02-13_16h26.15.457,multiplicationStroop,2021.2.3,MacIntel,60.04202942,,,,,,,,,,,,,,,,,,,,,,,,,,,,,,,,,28,5.9256,1,0,9,9,16,1,7,×,4,7 × 4,incongruent,largerFirst,1,2,28,,,,,,,,
,,,,,,,,,,,,,,,8380,2022-02-13_16h26.15.457,multiplicationStroop,2021.2.3,MacIntel,60.04202942,,,,,,,,,,,,,,,,,,,,,,,,,,,,,,,,,24,3.78,1,0,10,10,20,1,6,×,4,6 × 4,incongruent,largerFirst,1,2,24,,,,,,,,
,,,,,,,,,,,,,,,8380,2022-02-13_16h26.15.457,multiplicationStroop,2021.2.3,MacIntel,60.04202942,,,,,,,,,,,,,,,,,,,,,,,,,,,,,,,,,4,2.0146,1,0,11,11,28,1,2,×,2,2 × 2,incongruent,tie,1,2,4,,,,,,,,
,,,,,,,,,,,,,,,8380,2022-02-13_16h26.15.457,multiplicationStroop,2021.2.3,MacIntel,60.04202942,,,,,,,,,,,,,,,,,,,,,,,,,,,,,,,,,42,4.4298,1,0,12,12,17,1,7,×,6,7 × 6,incongruent,largerFirst,1,2,42,,,,,,,,
,,,,,,,,,,,,,,,8380,2022-02-13_16h26.15.457,multiplicationStroop,2021.2.3,MacIntel,60.04202942,,,,,,,,,,,,,,,,,,,,,,,,,,,,,,,,,72,4.5261,1,0,13,13,0,1,8,×,9,8 × 9,incongruent,smallerFirst,2,1,72,,,,,,,,
,,,,,,,,,,,,,,,8380,2022-02-13_16h26.15.457,multiplicationStroop,2021.2.3,MacIntel,60.04202942,,,,,,,,,,,,,,,,,,,,,,,,,,,,,,,,,12,1.9466,1,0,14,14,19,1,6,×,2,6 × 2,incongruent,largerFirst,1,2,12,,,,,,,,
,,,,,,,,,,,,,,,8380,2022-02-13_16h26.15.457,multiplicationStroop,2021.2.3,MacIntel,60.04202942,,,,,,,,,,,,,,,,,,,,,,,,,,,,,,,,,48,4.0636,1,0,15,15,1,1,6,×,8,6 × 8,incongruent,smallerFirst,2,1,48,,,,,,,,
,,,,,,,,,,,,,,,8380,2022-02-13_16h26.15.457,multiplicationStroop,2021.2.3,MacIntel,60.04202942,,,,,,,,,,,,,,,,,,,,,,,,,,,,,,,,,63,4.7536,1,0,16,16,3,1,7,×,9,7 × 9,incongruent,smallerFirst,2,1,63,,,,,,,,
,,,,,,,,,,,,,,,8380,2022-02-13_16h26.15.457,multiplicationStroop,2021.2.3,MacIntel,60.04202942,,,,,,,,,,,,,,,,,,,,,,,,,,,,,,,,,49,4.5621,1,0,17,17,33,1,7,×,7,7 × 7,incongruent,tie,1,2,49,,,,,,,,
,,,,,,,,,,,,,,,8380,2022-02-13_16h26.15.457,multiplicationStroop,2021.2.3,MacIntel,60.04202942,,,,,,,,,,,,,,,,,,,,,,,,,,,,,,,,,64,4.4299,1,0,18,18,34,1,8,×,8,8 × 8,incongruent,tie,1,2,64,,,,,,,,
,,,,,,,,,,,,,,,8380,2022-02-13_16h26.15.457,multiplicationStroop,2021.2.3,MacIntel,60.04202942,,,,,,,,,,,,,,,,,,,,,,,,,,,,,,,,,18,3.6818,1,0,19,19,2,1,2,×,9,2 × 9,incongruent,smallerFirst,2,1,18,,,,,,,,
,,,,,,,,,,,,,,,8380,2022-02-13_16h26.15.457,multiplicationStroop,2021.2.3,MacIntel,60.04202942,,,,,,,,,,,,,,,,,,,,,,,,,,,,,,,,,30,5.0574,1,0,20,20,25,1,6,×,5,6 × 5,incongruent,largerFirst,1,2,30,,,,,,,,
,,,,,,,,,,,,,,,8380,2022-02-13_16h26.15.457,multiplicationStroop,2021.2.3,MacIntel,60.04202942,,,,,,,,,,,,,,,,,,,,,,,,,,,,,,,,,36,5.3137,1,0,21,21,15,1,9,×,4,9 × 4,incongruent,largerFirst,1,2,36,,,,,,,,
,,,,,,,,,,,,,,,8380,2022-02-13_16h26.15.457,multiplicationStroop,2021.2.3,MacIntel,60.04202942,,,,,,,,,,,,,,,,,,,,,,,,,,,,,,,,,20,3.9633,1,0,22,22,27,1,5,×,4,5 × 4,incongruent,largerFirst,1,2,20,,,,,,,,
,,,,,,,,,,,,,,,8380,2022-02-13_16h26.15.457,multiplicationStroop,2021.2.3,MacIntel,60.04202942,,,,,,,,,,,,,,,,,,,,,,,,,,,,,,,,,16,2.5977,1,0,23,23,23,1,8,×,2,8 × 2,incongruent,largerFirst,1,2,16,,,,,,,,
,,,,,,,,,,,,,,,8380,2022-02-13_16h26.15.457,multiplicationStroop,2021.2.3,MacIntel,60.04202942,,,,,,,,,,,,,,,,,,,,,,,,,,,,,,,,,32,3.3453,1,0,24,24,7,1,4,×,8,4 × 8,incongruent,smallerFirst,2,1,32,,,,,,,,
,,,,,,,,,,,,,,,8380,2022-02-13_16h26.15.457,multiplicationStroop,2021.2.3,MacIntel,60.04202942,,,,,,,,,,,,,,,,,,,,,,,,,,,,,,,,,40,5.0294,1,0,25,25,13,1,5,×,8,5 × 8,incongruent,smallerFirst,2,1,40,,,,,,,,
,,,,,,,,,,,,,,,8380,2022-02-13_16h26.15.457,multiplicationStroop,2021.2.3,MacIntel,60.04202942,,,,,,,,,,,,,,,,,,,,,,,,,,,,,,,,,10,1.948,1,0,26,26,21,1,5,×,2,5 × 2,incongruent,largerFirst,1,2,10,,,,,,,,
,,,,,,,,,,,,,,,8380,2022-02-13_16h26.15.457,multiplicationStroop,2021.2.3,MacIntel,60.04202942,,,,,,,,,,,,,,,,,,,,,,,,,,,,,,,,,9,2.0637,1,0,27,27,29,1,3,×,3,3 × 3,incongruent,tie,1,2,9,,,,,,,,
,,,,,,,,,,,,,,,8380,2022-02-13_16h26.15.457,multiplicationStroop,2021.2.3,MacIntel,60.04202942,,,,,,,,,,,,,,,,,,,,,,,,,,,,,,,,,27,4.0466,1,0,28,28,18,1,9,×,3,9 × 3,incongruent,largerFirst,1,2,27,,,,,,,,
,,,,,,,,,,,,,,,8380,2022-02-13_16h26.15.457,multiplicationStroop,2021.2.3,MacIntel,60.04202942,,,,,,,,,,,,,,,,,,,,,,,,,,,,,,,,,35,3.7165,1,0,29,29,12,1,5,×,7,5 × 7,incongruent,smallerFirst,2,1,35,,,,,,,,
,,,,,,,,,,,,,,,8380,2022-02-13_16h26.15.457,multiplicationStroop,2021.2.3,MacIntel,60.04202942,,,,,,,,,,,,,,,,,,,,,,,,,,,,,,,,,16,4.9595,1,0,30,30,30,1,4,×,4,4 × 4,incongruent,tie,1,2,16,,,,,,,,
,,,,,,,,,,,,,,,8380,2022-02-13_16h26.15.457,multiplicationStroop,2021.2.3,MacIntel,60.04202942,,,,,,,,,,,,,,,,,,,,,,,,,,,,,,,,,8,2.2341,1,0,31,31,24,1,4,×,2,4 × 2,incongruent,largerFirst,1,2,8,,,,,,,,
,,,,,,,,,,,,,,,8380,2022-02-13_16h26.15.457,multiplicationStroop,2021.2.3,MacIntel,60.04202942,,,,,,,,,,,,,,,,,,,,,,,,,,,,,,,,,54,5.7627,1,0,32,32,6,1,6,×,9,6 × 9,incongruent,smallerFirst,2,1,54,,,,,,,,
,,,,,,,,,,,,,,,8380,2022-02-13_16h26.15.457,multiplicationStroop,2021.2.3,MacIntel,60.04202942,,,,,,,,,,,,,,,,,,,,,,,,,,,,,,,,,45,3.9744,1,0,33,33,22,1,9,×,5,9 × 5,incongruent,largerFirst,1,2,45,,,,,,,,
,,,,,,,,,,,,,,,8380,2022-02-13_16h26.15.457,multiplicationStroop,2021.2.3,MacIntel,60.04202942,,,,,,,,,,,,,,,,,,,,,,,,,,,,,,,,,6,2.1462,1,0,34,34,11,1,2,×,3,2 × 3,incongruent,smallerFirst,2,1,6,,,,,,,,
,,,,,,,,,,,,,,,8380,2022-02-13_16h26.15.457,multiplicationStroop,2021.2.3,MacIntel,60.04202942,,,,,,,,,,,,,,,,,,,,,,,,,,,,,,,,,21,4.3612,1,0,35,35,26,1,7,×,3,7 × 3,incongruent,largerFirst,1,2,21,,,,,,,,
,,,,,,,,,,,,,,,8380,2022-02-13_16h26.15.457,multiplicationStroop,2021.2.3,MacIntel,60.04202942,,,,,,,,,,,,,,,,,,,,,,,,,,,,,,,,,,,,,,,,,,,,,,,,,,0,0,0,5,1,stimulusFile/mult_blk6_INcongruent.xlsx,,
,,,,,,,,,,,,,,,8380,2022-02-13_16h26.15.457,multiplicationStroop,2021.2.3,MacIntel,60.04202942,,,,,,,,,,,,,,,,,,,,,,,,,,,,,,,space,3.0767,9,1.917,1,0,0,0,29,1,3,×,3,3 × 3,neutral,tie,2,1,9,,,,,,,,
,,,,,,,,,,,,,,,8380,2022-02-13_16h26.15.457,multiplicationStroop,2021.2.3,MacIntel,60.04202942,,,,,,,,,,,,,,,,,,,,,,,,,,,,,,,,,24,3.548,1,0,1,1,6,1,4,×,6,4 × 6,incongruent,smallerFirst,2,1,24,,,,,,,,
,,,,,,,,,,,,,,,8380,2022-02-13_16h26.15.457,multiplicationStroop,2021.2.3,MacIntel,60.04202942,,,,,,,,,,,,,,,,,,,,,,,,,,,,,,,,,36,4.3799,1,0,2,2,32,1,6,×,6,6 × 6,neutral,tie,2,1,36,,,,,,,,
,,,,,,,,,,,,,,,8380,2022-02-13_16h26.15.457,multiplicationStroop,2021.2.3,MacIntel,60.04202942,,,,,,,,,,,,,,,,,,,,,,,,,,,,,,,,,24,4.6455,1,0,3,3,23,1,8,×,3,8 × 3,incongruent,largerFirst,1,2,24,,,,,,,,
,,,,,,,,,,,,,,,8380,2022-02-13_16h26.15.457,multiplicationStroop,2021.2.3,MacIntel,60.04202942,,,,,,,,,,,,,,,,,,,,,,,,,,,,,,,,,72,6.6777,1,0,4,4,14,1,9,×,8,9 × 8,incongruent,largerFirst,1,2,72,,,,,,,,
,,,,,,,,,,,,,,,8380,2022-02-13_16h26.15.457,multiplicationStroop,2021.2.3,MacIntel,60.04202942,,,,,,,,,,,,,,,,,,,,,,,,,,,,,,,,,16,5.9465,1,0,5,5,9,1,2,×,8,2 × 8,incongruent,smallerFirst,2,1,16,,,,,,,,
,,,,,,,,,,,,,,,8380,2022-02-13_16h26.15.457,multiplicationStroop,2021.2.3,MacIntel,60.04202942,,,,,,,,,,,,,,,,,,,,,,,,,,,,,,,,,45,3.5776,1,0,6,6,8,1,5,×,9,5 × 9,incongruent,smallerFirst,2,1,45,,,,,,,,
,,,,,,,,,,,,,,,8380,2022-02-13_16h26.15.457,multiplicationStroop,2021.2.3,MacIntel,60.04202942,,,,,,,,,,,,,,,,,,,,,,,,,,,,,,,,,30,5.0644,1,0,7,7,11,1,5,×,6,5 × 6,incongruent,smallerFirst,2,1,30,,,,,,,,
,,,,,,,,,,,,,,,8380,2022-02-13_16h26.15.457,multiplicationStroop,2021.2.3,MacIntel,60.04202942,,,,,,,,,,,,,,,,,,,,,,,,,,,,,,,,,36,5.7283,1,0,8,8,1,1,4,×,9,4 × 9,incongruent,smallerFirst,2,1,36,,,,,,,,
,,,,,,,,,,,,,,,8380,2022-02-13_16h26.15.457,multiplicationStroop,2021.2.3,MacIntel,60.04202942,,,,,,,,,,,,,,,,,,,,,,,,,,,,,,,,,16,4.2783,1,0,9,9,30,1,4,×,4,4 × 4,neutral,tie,2,1,16,,,,,,,,
,,,,,,,,,,,,,,,8380,2022-02-13_16h26.15.457,multiplicationStroop,2021.2.3,MacIntel,60.04202942,,,,,,,,,,,,,,,,,,,,,,,,,,,,,,,,,18,3.9463,1,0,10,10,22,1,6,×,3,6 × 3,incongruent,largerFirst,1,2,18,,,,,,,,
,,,,,,,,,,,,,,,8380,2022-02-13_16h26.15.457,multiplicationStroop,2021.2.3,MacIntel,60.04202942,,,,,,,,,,,,,,,,,,,,,,,,,,,,,,,,,49,3.7621,1,0,11,11,33,1,7,×,7,7 × 7,neutral,tie,2,1,49,,,,,,,,
,,,,,,,,,,,,,,,8380,2022-02-13_16h26.15.457,multiplicationStroop,2021.2.3,MacIntel,60.04202942,,,,,,,,,,,,,,,,,,,,,,,,,,,,,,,,,21,3.2653,1,0,12,12,12,1,3,×,7,3 × 7,incongruent,smallerFirst,2,1,21,,,,,,,,
,,,,,,,,,,,,,,,8380,2022-02-13_16h26.15.457,multiplicationStroop,2021.2.3,MacIntel,60.04202942,,,,,,,,,,,,,,,,,,,,,,,,,,,,,,,,,18,3.7119,1,0,13,13,16,1,9,×,2,9 × 2,incongruent,largerFirst,1,2,18,,,,,,,,
,,,,,,,,,,,,,,,8380,2022-02-13_16h26.15.457,multiplicationStroop,2021.2.3,MacIntel,60.04202942,,,,,,,,,,,,,,,,,,,,,,,,,,,,,,,,,42,3.6296,1,0,14,14,3,1,6,×,7,6 × 7,incongruent,smallerFirst,2,1,42,,,,,,,,
,,,,,,,,,,,,,,,8380,2022-02-13_16h26.15.457,multiplicationStroop,2021.2.3,MacIntel,60.04202942,,,,,,,,,,,,,,,,,,,,,,,,,,,,,,,,,35,4.73,1,0,15,15,26,1,7,×,5,7 × 5,incongruent,largerFirst,1,2,35,,,,,,,,
,,,,,,,,,,,,,,,8380,2022-02-13_16h26.15.457,multiplicationStroop,2021.2.3,MacIntel,60.04202942,,,,,,,,,,,,,,,,,,,,,,,,,,,,,,,,,32,3.3477,1,0,16,16,21,1,8,×,4,8 × 4,incongruent,largerFirst,1,2,32,,,,,,,,
,,,,,,,,,,,,,,,8380,2022-02-13_16h26.15.457,multiplicationStroop,2021.2.3,MacIntel,60.04202942,,,,,,,,,,,,,,,,,,,,,,,,,,,,,,,,,28,3.8471,1,0,17,17,2,1,4,×,7,4 × 7,incongruent,smallerFirst,2,1,28,,,,,,,,
,,,,,,,,,,,,,,,8380,2022-02-13_16h26.15.457,multiplicationStroop,2021.2.3,MacIntel,60.04202942,,,,,,,,,,,,,,,,,,,,,,,,,,,,,,,,,15,3.2478,1,0,18,18,24,1,5,×,3,5 × 3,incongruent,largerFirst,1,2,15,,,,,,,,
,,,,,,,,,,,,,,,8380,2022-02-13_16h26.15.457,multiplicationStroop,2021.2.3,MacIntel,60.04202942,,,,,,,,,,,,,,,,,,,,,,,,,,,,,,,,,27,3.3458,1,0,19,19,4,1,3,×,9,3 × 9,incongruent,smallerFirst,2,1,27,,,,,,,,
,,,,,,,,,,,,,,,8380,2022-02-13_16h26.15.457,multiplicationStroop,2021.2.3,MacIntel,60.04202942,,,,,,,,,,,,,,,,,,,,,,,,,,,,,,,,,63,4.046,1,0,20,20,17,1,9,×,7,9 × 7,incongruent,largerFirst,1,2,63,,,,,,,,
,,,,,,,,,,,,,,,8380,2022-02-13_16h26.15.457,multiplicationStroop,2021.2.3,MacIntel,60.04202942,,,,,,,,,,,,,,,,,,,,,,,,,,,,,,,,,8,2.0331,1,0,21,21,10,1,2,×,4,2 × 4,incongruent,smallerFirst,2,1,8,,,,,,,,
,,,,,,,,,,,,,,,8380,2022-02-13_16h26.15.457,multiplicationStroop,2021.2.3,MacIntel,60.04202942,,,,,,,,,,,,,,,,,,,,,,,,,,,,,,,,,54,3.7127,1,0,22,22,20,1,9,×,6,9 × 6,incongruent,largerFirst,1,2,54,,,,,,,,
,,,,,,,,,,,,,,,8380,2022-02-13_16h26.15.457,multiplicationStroop,2021.2.3,MacIntel,60.04202942,,,,,,,,,,,,,,,,,,,,,,,,,,,,,,,,,12,3.3641,1,0,23,23,5,1,2,×,6,2 × 6,incongruent,smallerFirst,2,1,12,,,,,,,,
,,,,,,,,,,,,,,,8380,2022-02-13_16h26.15.457,multiplicationStroop,2021.2.3,MacIntel,60.04202942,,,,,,,,,,,,,,,,,,,,,,,,,,,,,,,,,12,2.2769,1,0,24,24,19,1,4,×,3,4 × 3,incongruent,largerFirst,1,2,12,,,,,,,,
,,,,,,,,,,,,,,,8380,2022-02-13_16h26.15.457,multiplicationStroop,2021.2.3,MacIntel,60.04202942,,,,,,,,,,,,,,,,,,,,,,,,,,,,,,,,,48,5.4795,1,0,25,25,15,1,8,×,6,8 × 6,incongruent,largerFirst,1,2,48,,,,,,,,
,,,,,,,,,,,,,,,8380,2022-02-13_16h26.15.457,multiplicationStroop,2021.2.3,MacIntel,60.04202942,,,,,,,,,,,,,,,,,,,,,,,,,,,,,,,,,81,3.8437,1,0,26,26,35,1,9,×,9,9 × 9,neutral,tie,2,1,81,,,,,,,,
,,,,,,,,,,,,,,,8380,2022-02-13_16h26.15.457,multiplicationStroop,2021.2.3,MacIntel,60.04202942,,,,,,,,,,,,,,,,,,,,,,,,,,,,,,,,,20,2.0809,1,0,27,27,13,1,4,×,5,4 × 5,incongruent,smallerFirst,2,1,20,,,,,,,,
,,,,,,,,,,,,,,,8380,2022-02-13_16h26.15.457,multiplicationStroop,2021.2.3,MacIntel,60.04202942,,,,,,,,,,,,,,,,,,,,,,,,,,,,,,,,,40,4.8463,1,0,28,28,27,1,8,×,5,8 × 5,incongruent,largerFirst,1,2,40,,,,,,,,
,,,,,,,,,,,,,,,8380,2022-02-13_16h26.15.457,multiplicationStroop,2021.2.3,MacIntel,60.04202942,,,,,,,,,,,,,,,,,,,,,,,,,,,,,,,,,6,3.1964,1,0,29,29,25,1,3,×,2,3 × 2,incongruent,largerFirst,1,2,6,,,,,,,,
,,,,,,,,,,,,,,,8380,2022-02-13_16h26.15.457,multiplicationStroop,2021.2.3,MacIntel,60.04202942,,,,,,,,,,,,,,,,,,,,,,,,,,,,,,,,,4,2.2608,1,0,30,30,28,1,2,×,2,2 × 2,neutral,tie,2,1,4,,,,,,,,
,,,,,,,,,,,,,,,8380,2022-02-13_16h26.15.457,multiplicationStroop,2021.2.3,MacIntel,60.04202942,,,,,,,,,,,,,,,,,,,,,,,,,,,,,,,,,14,1.9317,1,0,31,31,18,1,7,×,2,7 × 2,incongruent,largerFirst,1,2,14,,,,,,,,
,,,,,,,,,,,,,,,8380,2022-02-13_16h26.15.457,multiplicationStroop,2021.2.3,MacIntel,60.04202942,,,,,,,,,,,,,,,,,,,,,,,,,,,,,,,,,64,3.9296,1,0,32,32,34,1,8,×,8,8 × 8,neutral,tie,2,1,64,,,,,,,,
,,,,,,,,,,,,,,,8380,2022-02-13_16h26.15.457,multiplicationStroop,2021.2.3,MacIntel,60.04202942,,,,,,,,,,,,,,,,,,,,,,,,,,,,,,,,,25,3.1625,1,0,33,33,31,1,5,×,5,5 × 5,neutral,tie,2,1,25,,,,,,,,
,,,,,,,,,,,,,,,8380,2022-02-13_16h26.15.457,multiplicationStroop,2021.2.3,MacIntel,60.04202942,,,,,,,,,,,,,,,,,,,,,,,,,,,,,,,,,10,2.4982,1,0,34,34,7,1,2,×,5,2 × 5,incongruent,smallerFirst,2,1,10,,,,,,,,
,,,,,,,,,,,,,,,8380,2022-02-13_16h26.15.457,multiplicationStroop,2021.2.3,MacIntel,60.04202942,,,,,,,,,,,,,,,,,,,,,,,,,,,,,,,,,56,3.8473,1,0,35,35,0,1,7,×,8,7 × 8,incongruent,smallerFirst,2,1,56,,,,,,,,
,,,,,,,,,,,,,,,8380,2022-02-13_16h26.15.457,multiplicationStroop,2021.2.3,MacIntel,60.04202942,,,,,,,,,,,,,,,,,,,,,,,,,,,,,,,,,,,,,,,,,,,,,,,,,,0,1,1,4,1,stimulusFile/mult_blk5_INcongruent.xlsx,,
,,,,,,,,,,,,,,,8380,2022-02-13_16h26.15.457,multiplicationStroop,2021.2.3,MacIntel,60.04202942,,,,,,,,,,,,,,,,,,,,,,,,,,,,,,,space,37.6067,72,4.8987,1,0,0,0,11,1,8,×,9,8 × 9,neutral,smallerFirst,1.5,1.5,72,,,,,,,,
,,,,,,,,,,,,,,,8380,2022-02-13_16h26.15.457,multiplicationStroop,2021.2.3,MacIntel,60.04202942,,,,,,,,,,,,,,,,,,,,,,,,,,,,,,,,,54,3.7289,1,0,1,1,7,1,6,×,9,6 × 9,neutral,smallerFirst,1.5,1.5,54,,,,,,,,
,,,,,,,,,,,,,,,8380,2022-02-13_16h26.15.457,multiplicationStroop,2021.2.3,MacIntel,60.04202942,,,,,,,,,,,,,,,,,,,,,,,,,,,,,,,,,42,3.7935,1,0,2,2,6,1,6,×,7,6 × 7,neutral,smallerFirst,1.5,1.5,42,,,,,,,,
,,,,,,,,,,,,,,,8380,2022-02-13_16h26.15.457,multiplicationStroop,2021.2.3,MacIntel,60.04202942,,,,,,,,,,,,,,,,,,,,,,,,,,,,,,,,,15,3.6792,1,0,3,3,5,1,3,×,5,3 × 5,neutral,smallerFirst,1.5,1.5,15,,,,,,,,
,,,,,,,,,,,,,,,8380,2022-02-13_16h26.15.457,multiplicationStroop,2021.2.3,MacIntel,60.04202942,,,,,,,,,,,,,,,,,,,,,,,,,,,,,,,,,14,3.8771,1,0,4,4,16,1,7,×,2,7 × 2,neutral,largerFirst,1.5,1.5,14,,,,,,,,
,,,,,,,,,,,,,,,8380,2022-02-13_16h26.15.457,multiplicationStroop,2021.2.3,MacIntel,60.04202942,,,,,,,,,,,,,,,,,,,,,,,,,,,,,,,,,20,4.0745,1,0,5,5,20,1,5,×,4,5 × 4,neutral,largerFirst,1.5,1.5,20,,,,,,,,
,,,,,,,,,,,,,,,8380,2022-02-13_16h26.15.457,multiplicationStroop,2021.2.3,MacIntel,60.04202942,,,,,,,,,,,,,,,,,,,,,,,,,,,,,,,,,18,4.2652,1,0,6,6,0,1,3,×,6,3 × 6,neutral,smallerFirst,1.5,1.5,18,,,,,,,,
,,,,,,,,,,,,,,,8380,2022-02-13_16h26.15.457,multiplicationStroop,2021.2.3,MacIntel,60.04202942,,,,,,,,,,,,,,,,,,,,,,,,,,,,,,,,,16,3.816,1,0,7,7,30,1,4,×,4,4 × 4,neutral,tie,1.5,1.5,16,,,,,,,,
,,,,,,,,,,,,,,,8380,2022-02-13_16h26.15.457,multiplicationStroop,2021.2.3,MacIntel,60.04202942,,,,,,,,,,,,,,,,,,,,,,,,,,,,,,,,,16,2.7444,1,0,8,8,13,1,2,×,8,2 × 8,neutral,smallerFirst,1.5,1.5,16,,,,,,,,
,,,,,,,,,,,,,,,8380,2022-02-13_16h26.15.457,multiplicationStroop,2021.2.3,MacIntel,60.04202942,,,,,,,,,,,,,,,,,,,,,,,,,,,,,,,,,81,4.1627,1,0,9,9,35,1,9,×,9,9 × 9,neutral,tie,1.5,1.5,81,,,,,,,,
,,,,,,,,,,,,,,,8380,2022-02-13_16h26.15.457,multiplicationStroop,2021.2.3,MacIntel,60.04202942,,,,,,,,,,,,,,,,,,,,,,,,,,,,,,,,,63,5.2279,1,0,10,10,12,1,7,×,9,7 × 9,neutral,smallerFirst,1.5,1.5,63,,,,,,,,
,,,,,,,,,,,,,,,8380,2022-02-13_16h26.15.457,multiplicationStroop,2021.2.3,MacIntel,60.04202942,,,,,,,,,,,,,,,,,,,,,,,,,,,,,,,,,56,3.8646,1,0,11,11,9,1,7,×,8,7 × 8,neutral,smallerFirst,1.5,1.5,56,,,,,,,,
,,,,,,,,,,,,,,,8380,2022-02-13_16h26.15.457,multiplicationStroop,2021.2.3,MacIntel,60.04202942,,,,,,,,,,,,,,,,,,,,,,,,,,,,,,,,,45,4.3096,1,0,12,12,10,1,5,×,9,5 × 9,neutral,smallerFirst,1.5,1.5,45,,,,,,,,
,,,,,,,,,,,,,,,8380,2022-02-13_16h26.15.457,multiplicationStroop,2021.2.3,MacIntel,60.04202942,,,,,,,,,,,,,,,,,,,,,,,,,,,,,,,,,36,4.2271,1,0,13,13,27,1,9,×,4,9 × 4,neutral,largerFirst,1.5,1.5,36,,,,,,,,
,,,,,,,,,,,,,,,8380,2022-02-13_16h26.15.457,multiplicationStroop,2021.2.3,MacIntel,60.04202942,,,,,,,,,,,,,,,,,,,,,,,,,,,,,,,,,24,5.2301,1,0,14,14,2,1,4,×,6,4 × 6,neutral,smallerFirst,1.5,1.5,24,,,,,,,,
,,,,,,,,,,,,,,,8380,2022-02-13_16h26.15.457,multiplicationStroop,2021.2.3,MacIntel,60.04202942,,,,,,,,,,,,,,,,,,,,,,,,,,,,,,,,,6,2.9287,1,0,15,15,26,1,3,×,2,3 × 2,neutral,largerFirst,1.5,1.5,6,,,,,,,,
,,,,,,,,,,,,,,,8380,2022-02-13_16h26.15.457,multiplicationStroop,2021.2.3,MacIntel,60.04202942,,,,,,,,,,,,,,,,,,,,,,,,,,,,,,,,,8,1.9651,1,0,16,16,3,1,2,×,4,2 × 4,neutral,smallerFirst,1.5,1.5,8,,,,,,,,
,,,,,,,,,,,,,,,8380,2022-02-13_16h26.15.457,multiplicationStroop,2021.2.3,MacIntel,60.04202942,,,,,,,,,,,,,,,,,,,,,,,,,,,,,,,,,35,4.879,1,0,17,17,1,1,5,×,7,5 × 7,neutral,smallerFirst,1.5,1.5,35,,,,,,,,
,,,,,,,,,,,,,,,8380,2022-02-13_16h26.15.457,multiplicationStroop,2021.2.3,MacIntel,60.04202942,,,,,,,,,,,,,,,,,,,,,,,,,,,,,,,,,10,1.9498,1,0,18,18,4,1,2,×,5,2 × 5,neutral,smallerFirst,1.5,1.5,10,,,,,,,,
,,,,,,,,,,,,,,,8380,2022-02-13_16h26.15.457,multiplicationStroop,2021.2.3,MacIntel,60.04202942,,,,,,,,,,,,,,,,,,,,,,,,,,,,,,,,,30,4.6472,1,0,19,19,19,1,6,×,5,6 × 5,neutral,largerFirst,1.5,1.5,30,,,,,,,,
,,,,,,,,,,,,,,,8380,2022-02-13_16h26.15.457,multiplicationStroop,2021.2.3,MacIntel,60.04202942,,,,,,,,,,,,,,,,,,,,,,,,,,,,,,,,,4,2.6941,1,0,20,20,28,1,2,×,2,2 × 2,neutral,tie,1.5,1.5,4,,,,,,,,
,,,,,,,,,,,,,,,8380,2022-02-13_16h26.15.457,multiplicationStroop,2021.2.3,MacIntel,60.04202942,,,,,,,,,,,,,,,,,,,,,,,,,,,,,,,,,64,4.3784,1,0,21,21,34,1,8,×,8,8 × 8,neutral,tie,1.5,1.5,64,,,,,,,,
,,,,,,,,,,,,,,,8380,2022-02-13_16h26.15.457,multiplicationStroop,2021.2.3,MacIntel,60.04202942,,,,,,,,,,,,,,,,,,,,,,,,,,,,,,,,,40,4.2822,1,0,22,22,24,1,8,×,5,8 × 5,neutral,largerFirst,1.5,1.5,40,,,,,,,,
,,,,,,,,,,,,,,,8380,2022-02-13_16h26.15.457,multiplicationStroop,2021.2.3,MacIntel,60.04202942,,,,,,,,,,,,,,,,,,,,,,,,,,,,,,,,,12,2.7635,1,0,23,23,25,1,6,×,2,6 × 2,neutral,largerFirst,1.5,1.5,12,,,,,,,,
,,,,,,,,,,,,,,,8380,2022-02-13_16h26.15.457,multiplicationStroop,2021.2.3,MacIntel,60.04202942,,,,,,,,,,,,,,,,,,,,,,,,,,,,,,,,,12,3.3453,1,0,24,24,21,1,4,×,3,4 × 3,neutral,largerFirst,1.5,1.5,12,,,,,,,,
,,,,,,,,,,,,,,,8380,2022-02-13_16h26.15.457,multiplicationStroop,2021.2.3,MacIntel,60.04202942,,,,,,,,,,,,,,,,,,,,,,,,,,,,,,,,,49,5.2463,1,0,25,25,33,1,7,×,7,7 × 7,neutral,tie,1.5,1.5,49,,,,,,,,
,,,,,,,,,,,,,,,8380,2022-02-13_16h26.15.457,multiplicationStroop,2021.2.3,MacIntel,60.04202942,,,,,,,,,,,,,,,,,,,,,,,,,,,,,,,,,21,3.9632,1,0,26,26,8,1,3,×,7,3 × 7,neutral,smallerFirst,1.5,1.5,21,,,,,,,,
,,,,,,,,,,,,,,,8380,2022-02-13_16h26.15.457,multiplicationStroop,2021.2.3,MacIntel,60.04202942,,,,,,,,,,,,,,,,,,,,,,,,,,,,,,,,,28,3.9751,1,0,27,27,17,1,7,×,4,7 × 4,neutral,largerFirst,1.5,1.5,28,,,,,,,,
,,,,,,,,,,,,,,,8380,2022-02-13_16h26.15.457,multiplicationStroop,2021.2.3,MacIntel,60.04202942,,,,,,,,,,,,,,,,,,,,,,,,,,,,,,,,,36,3.9119,1,0,28,28,32,1,6,×,6,6 × 6,neutral,tie,1.5,1.5,36,,,,,,,,
,,,,,,,,,,,,,,,8380,2022-02-13_16h26.15.457,multiplicationStroop,2021.2.3,MacIntel,60.04202942,,,,,,,,,,,,,,,,,,,,,,,,,,,,,,,,,27,4.7947,1,0,29,29,14,1,9,×,3,9 × 3,neutral,largerFirst,1.5,1.5,27,,,,,,,,
,,,,,,,,,,,,,,,8380,2022-02-13_16h26.15.457,multiplicationStroop,2021.2.3,MacIntel,60.04202942,,,,,,,,,,,,,,,,,,,,,,,,,,,,,,,,,48,3.429,1,0,30,30,15,1,8,×,6,8 × 6,neutral,largerFirst,1.5,1.5,48,,,,,,,,
,,,,,,,,,,,,,,,8380,2022-02-13_16h26.15.457,multiplicationStroop,2021.2.3,MacIntel,60.04202942,,,,,,,,,,,,,,,,,,,,,,,,,,,,,,,,,25,2.9682,1,0,31,31,31,1,5,×,5,5 × 5,neutral,tie,1.5,1.5,25,,,,,,,,
,,,,,,,,,,,,,,,8380,2022-02-13_16h26.15.457,multiplicationStroop,2021.2.3,MacIntel,60.04202942,,,,,,,,,,,,,,,,,,,,,,,,,,,,,,,,,24,3.2639,1,0,32,32,22,1,8,×,3,8 × 3,neutral,largerFirst,1.5,1.5,24,,,,,,,,
,,,,,,,,,,,,,,,8380,2022-02-13_16h26.15.457,multiplicationStroop,2021.2.3,MacIntel,60.04202942,,,,,,,,,,,,,,,,,,,,,,,,,,,,,,,,,18,4.0469,1,0,33,33,18,1,9,×,2,9 × 2,neutral,largerFirst,1.5,1.5,18,,,,,,,,
,,,,,,,,,,,,,,,8380,2022-02-13_16h26.15.457,multiplicationStroop,2021.2.3,MacIntel,60.04202942,,,,,,,,,,,,,,,,,,,,,,,,,,,,,,,,,32,3.4954,1,0,34,34,23,1,8,×,4,8 × 4,neutral,largerFirst,1.5,1.5,32,,,,,,,,
,,,,,,,,,,,,,,,8380,2022-02-13_16h26.15.457,multiplicationStroop,2021.2.3,MacIntel,60.04202942,,,,,,,,,,,,,,,,,,,,,,,,,,,,,,,,,9,3.3476,1,0,35,35,29,1,3,×,3,3 × 3,neutral,tie,1.5,1.5,9,,,,,,,,
,,,,,,,,,,,,,,,8380,2022-02-13_16h26.15.457,multiplicationStroop,2021.2.3,MacIntel,60.04202942,,,,,,,,,,,,,,,,,,,,,,,,,,,,,,,,,,,,,,,,,,,,,,,,,,0,2,2,1,1,stimulusFile/mult_blk2.xlsx,,
,,,,,,,,,,,,,,,8380,2022-02-13_16h26.15.457,multiplicationStroop,2021.2.3,MacIntel,60.04202942,,,,,,,,,,,,,,,,,,,,,,,,,,,,,,,space,1.1656,42,4.2455,1,0,0,0,20,1,7,×,6,7 × 6,neutral,largerFirst,1.5,1.5,42,,,,,,,,
,,,,,,,,,,,,,,,8380,2022-02-13_16h26.15.457,multiplicationStroop,2021.2.3,MacIntel,60.04202942,,,,,,,,,,,,,,,,,,,,,,,,,,,,,,,,,12,2.3623,1,0,1,1,11,1,2,×,6,2 × 6,neutral,smallerFirst,1.5,1.5,12,,,,,,,,
,,,,,,,,,,,,,,,8380,2022-02-13_16h26.15.457,multiplicationStroop,2021.2.3,MacIntel,60.04202942,,,,,,,,,,,,,,,,,,,,,,,,,,,,,,,,,63,4.0463,1,0,2,2,26,1,9,×,7,9 × 7,neutral,largerFirst,1.5,1.5,63,,,,,,,,
,,,,,,,,,,,,,,,8380,2022-02-13_16h26.15.457,multiplicationStroop,2021.2.3,MacIntel,60.04202942,,,,,,,,,,,,,,,,,,,,,,,,,,,,,,,,,36,9.6567,1,0,3,3,13,1,4,×,9,4 × 9,neutral,smallerFirst,1.5,1.5,36,,,,,,,,
,,,,,,,,,,,,,,,8380,2022-02-13_16h26.15.457,multiplicationStroop,2021.2.3,MacIntel,60.04202942,,,,,,,,,,,,,,,,,,,,,,,,,,,,,,,,,40,3.7262,1,0,4,4,10,1,5,×,8,5 × 8,neutral,smallerFirst,1.5,1.5,40,,,,,,,,
,,,,,,,,,,,,,,,8380,2022-02-13_16h26.15.457,multiplicationStroop,2021.2.3,MacIntel,60.04202942,,,,,,,,,,,,,,,,,,,,,,,,,,,,,,,,,72,4.4977,1,0,5,5,25,1,9,×,8,9 × 8,neutral,largerFirst,1.5,1.5,72,,,,,,,,
,,,,,,,,,,,,,,,8380,2022-02-13_16h26.15.457,multiplicationStroop,2021.2.3,MacIntel,60.04202942,,,,,,,,,,,,,,,,,,,,,,,,,,,,,,,,,6,2.2138,1,0,6,6,12,1,2,×,3,2 × 3,neutral,smallerFirst,1.5,1.5,6,,,,,,,,
,,,,,,,,,,,,,,,8380,2022-02-13_16h26.15.457,multiplicationStroop,2021.2.3,MacIntel,60.04202942,,,,,,,,,,,,,,,,,,,,,,,,,,,,,,,,,31,3.1471,0,0,7,7,9,1,4,×,8,4 × 8,neutral,smallerFirst,1.5,1.5,32,,,,,,,,
,,,,,,,,,,,,,,,8380,2022-02-13_16h26.15.457,multiplicationStroop,2021.2.3,MacIntel,60.04202942,,,,,,,,,,,,,,,,,,,,,,,,,,,,,,,,,16,3.6451,1,0,8,8,30,1,4,×,4,4 × 4,neutral,tie,1.5,1.5,16,,,,,,,,
,,,,,,,,,,,,,,,8380,2022-02-13_16h26.15.457,multiplicationStroop,2021.2.3,MacIntel,60.04202942,,,,,,,,,,,,,,,,,,,,,,,,,,,,,,,,,10,2.2135,1,0,9,9,18,1,5,×,2,5 × 2,neutral,largerFirst,1.5,1.5,10,,,,,,,,
,,,,,,,,,,,,,,,8380,2022-02-13_16h26.15.457,multiplicationStroop,2021.2.3,MacIntel,60.04202942,,,,,,,,,,,,,,,,,,,,,,,,,,,,,,,,,24,5.1141,1,0,10,10,8,1,3,×,8,3 × 8,neutral,smallerFirst,1.5,1.5,24,,,,,,,,
,,,,,,,,,,,,,,,8380,2022-02-13_16h26.15.457,multiplicationStroop,2021.2.3,MacIntel,60.04202942,,,,,,,,,,,,,,,,,,,,,,,,,,,,,,,,,56,3.81,1,0,11,11,23,1,8,×,7,8 × 7,neutral,largerFirst,1.5,1.5,56,,,,,,,,
,,,,,,,,,,,,,,,8380,2022-02-13_16h26.15.457,multiplicationStroop,2021.2.3,MacIntel,60.04202942,,,,,,,,,,,,,,,,,,,,,,,,,,,,,,,,,8,3.765,1,0,12,12,17,1,4,×,2,4 × 2,neutral,largerFirst,1.5,1.5,8,,,,,,,,
,,,,,,,,,,,,,,,8380,2022-02-13_16h26.15.457,multiplicationStroop,2021.2.3,MacIntel,60.04202942,,,,,,,,,,,,,,,,,,,,,,,,,,,,,,,,,36,5.1624,1,0,13,13,32,1,6,×,6,6 × 6,neutral,tie,1.5,1.5,36,,,,,,,,
,,,,,,,,,,,,,,,8380,2022-02-13_16h26.15.457,multiplicationStroop,2021.2.3,MacIntel,60.04202942,,,,,,,,,,,,,,,,,,,,,,,,,,,,,,,,,15,4.4649,1,0,14,14,19,1,5,×,3,5 × 3,neutral,largerFirst,1.5,1.5,15,,,,,,,,
,,,,,,,,,,,,,,,8380,2022-02-13_16h26.15.457,multiplicationStroop,2021.2.3,MacIntel,60.04202942,,,,,,,,,,,,,,,,,,,,,,,,,,,,,,,,,35,4.9138,1,0,15,15,15,1,7,×,5,7 × 5,neutral,largerFirst,1.5,1.5,35,,,,,,,,
,,,,,,,,,,,,,,,8380,2022-02-13_16h26.15.457,multiplicationStroop,2021.2.3,MacIntel,60.04202942,,,,,,,,,,,,,,,,,,,,,,,,,,,,,,,,,21,3.3255,1,0,16,16,22,1,7,×,3,7 × 3,neutral,largerFirst,1.5,1.5,21,,,,,,,,
,,,,,,,,,,,,,,,8380,2022-02-13_16h26.15.457,multiplicationStroop,2021.2.3,MacIntel,60.04202942,,,,,,,,,,,,,,,,,,,,,,,,,,,,,,,,,4,2.1129,1,0,17,17,28,1,2,×,2,2 × 2,neutral,tie,1.5,1.5,4,,,,,,,,
,,,,,,,,,,,,,,,8380,2022-02-13_16h26.15.457,multiplicationStroop,2021.2.3,MacIntel,60.04202942,,,,,,,,,,,,,,,,,,,,,,,,,,,,,,,,,12,2.0651,1,0,18,18,7,1,3,×,4,3 × 4,neutral,smallerFirst,1.5,1.5,12,,,,,,,,
,,,,,,,,,,,,,,,8380,2022-02-13_16h26.15.457,multiplicationStroop,2021.2.3,MacIntel,60.04202942,,,,,,,,,,,,,,,,,,,,,,,,,,,,,,,,,25,3.0962,1,0,19,19,31,1,5,×,5,5 × 5,neutral,tie,1.5,1.5,25,,,,,,,,
,,,,,,,,,,,,,,,8380,2022-02-13_16h26.15.457,multiplicationStroop,2021.2.3,MacIntel,60.04202942,,,,,,,,,,,,,,,,,,,,,,,,,,,,,,,,,18,9.4435,1,0,20,20,4,1,2,×,9,2 × 9,neutral,smallerFirst,1.5,1.5,18,,,,,,,,
,,,,,,,,,,,,,,,8380,2022-02-13_16h26.15.457,multiplicationStroop,2021.2.3,MacIntel,60.04202942,,,,,,,,,,,,,,,,,,,,,,,,,,,,,,,,,14,2.2146,1,0,21,21,2,1,2,×,7,2 × 7,neutral,smallerFirst,1.5,1.5,14,,,,,,,,
,,,,,,,,,,,,,,,8380,2022-02-13_16h26.15.457,multiplicationStroop,2021.2.3,MacIntel,60.04202942,,,,,,,,,,,,,,,,,,,,,,,,,,,,,,,,,81,2.5817,1,0,22,22,35,1,9,×,9,9 × 9,neutral,tie,1.5,1.5,81,,,,,,,,
,,,,,,,,,,,,,,,8380,2022-02-13_16h26.15.457,multiplicationStroop,2021.2.3,MacIntel,60.04202942,,,,,,,,,,,,,,,,,,,,,,,,,,,,,,,,,54,4.2125,1,0,23,23,21,1,9,×,6,9 × 6,neutral,largerFirst,1.5,1.5,54,,,,,,,,
,,,,,,,,,,,,,,,8380,2022-02-13_16h26.15.457,multiplicationStroop,2021.2.3,MacIntel,60.04202942,,,,,,,,,,,,,,,,,,,,,,,,,,,,,,,,,49,4.5413,1,0,24,24,33,1,7,×,7,7 × 7,neutral,tie,1.5,1.5,49,,,,,,,,
,,,,,,,,,,,,,,,8380,2022-02-13_16h26.15.457,multiplicationStroop,2021.2.3,MacIntel,60.04202942,,,,,,,,,,,,,,,,,,,,,,,,,,,,,,,,,16,2.5488,1,0,25,25,27,1,8,×,2,8 × 2,neutral,largerFirst,1.5,1.5,16,,,,,,,,
,,,,,,,,,,,,,,,8380,2022-02-13_16h26.15.457,multiplicationStroop,2021.2.3,MacIntel,60.04202942,,,,,,,,,,,,,,,,,,,,,,,,,,,,,,,,,45,2.7992,1,0,26,26,24,1,9,×,5,9 × 5,neutral,largerFirst,1.5,1.5,45,,,,,,,,
,,,,,,,,,,,,,,,8380,2022-02-13_16h26.15.457,multiplicationStroop,2021.2.3,MacIntel,60.04202942,,,,,,,,,,,,,,,,,,,,,,,,,,,,,,,,,18,3.8788,1,0,27,27,14,1,6,×,3,6 × 3,neutral,largerFirst,1.5,1.5,18,,,,,,,,
,,,,,,,,,,,,,,,8380,2022-02-13_16h26.15.457,multiplicationStroop,2021.2.3,MacIntel,60.04202942,,,,,,,,,,,,,,,,,,,,,,,,,,,,,,,,,30,4.0781,1,0,28,28,5,1,5,×,6,5 × 6,neutral,smallerFirst,1.5,1.5,30,,,,,,,,
,,,,,,,,,,,,,,,8380,2022-02-13_16h26.15.457,multiplicationStroop,2021.2.3,MacIntel,60.04202942,,,,,,,,,,,,,,,,,,,,,,,,,,,,,,,,,20,2.6803,1,0,29,29,6,1,4,×,5,4 × 5,neutral,smallerFirst,1.5,1.5,20,,,,,,,,
,,,,,,,,,,,,,,,8380,2022-02-13_16h26.15.457,multiplicationStroop,2021.2.3,MacIntel,60.04202942,,,,,,,,,,,,,,,,,,,,,,,,,,,,,,,,,24,4.4618,1,0,30,30,16,1,6,×,4,6 × 4,neutral,largerFirst,1.5,1.5,24,,,,,,,,
,,,,,,,,,,,,,,,8380,2022-02-13_16h26.15.457,multiplicationStroop,2021.2.3,MacIntel,60.04202942,,,,,,,,,,,,,,,,,,,,,,,,,,,,,,,,,48,3.8149,1,0,31,31,1,1,6,×,8,6 × 8,neutral,smallerFirst,1.5,1.5,48,,,,,,,,
,,,,,,,,,,,,,,,8380,2022-02-13_16h26.15.457,multiplicationStroop,2021.2.3,MacIntel,60.04202942,,,,,,,,,,,,,,,,,,,,,,,,,,,,,,,,,28,13.3059,1,0,32,32,3,1,4,×,7,4 × 7,neutral,smallerFirst,1.5,1.5,28,,,,,,,,
,,,,,,,,,,,,,,,8380,2022-02-13_16h26.15.457,multiplicationStroop,2021.2.3,MacIntel,60.04202942,,,,,,,,,,,,,,,,,,,,,,,,,,,,,,,,,64,12.7749,1,0,33,33,34,1,8,×,8,8 × 8,neutral,tie,1.5,1.5,64,,,,,,,,
,,,,,,,,,,,,,,,8380,2022-02-13_16h26.15.457,multiplicationStroop,2021.2.3,MacIntel,60.04202942,,,,,,,,,,,,,,,,,,,,,,,,,,,,,,,,,9,3.2956,1,0,34,34,29,1,3,×,3,3 × 3,neutral,tie,1.5,1.5,9,,,,,,,,
,,,,,,,,,,,,,,,8380,2022-02-13_16h26.15.457,multiplicationStroop,2021.2.3,MacIntel,60.04202942,,,,,,,,,,,,,,,,,,,,,,,,,,,,,,,,,27,4.1301,1,0,35,35,0,1,3,×,9,3 × 9,neutral,smallerFirst,1.5,1.5,27,,,,,,,,
,,,,,,,,,,,,,,,8380,2022-02-13_16h26.15.457,multiplicationStroop,2021.2.3,MacIntel,60.04202942,,,,,,,,,,,,,,,,,,,,,,,,,,,,,,,,,,,,,,,,,,,,,,,,,,0,3,3,0,1,stimulusFile/mult_blk1.xlsx,,
,,,,,,,,,,,,,,,8380,2022-02-13_16h26.15.457,multiplicationStroop,2021.2.3,MacIntel,60.04202942,,,,,,,,,,,,,,,,,,,,,,,,,,,,,,,space,5.0177,81,2.4692,1,0,0,0,35,1,9,×,9,9 × 9,neutral,tie,1,2,81,,,,,,,,
,,,,,,,,,,,,,,,8380,2022-02-13_16h26.15.457,multiplicationStroop,2021.2.3,MacIntel,60.04202942,,,,,,,,,,,,,,,,,,,,,,,,,,,,,,,,,49,6.0455,1,0,1,1,33,1,7,×,7,7 × 7,neutral,tie,1,2,49,,,,,,,,
,,,,,,,,,,,,,,,8380,2022-02-13_16h26.15.457,multiplicationStroop,2021.2.3,MacIntel,60.04202942,,,,,,,,,,,,,,,,,,,,,,,,,,,,,,,,,36,5.911,1,0,2,2,14,1,9,×,4,9 × 4,congruent,largerFirst,2,1,36,,,,,,,,
,,,,,,,,,,,,,,,8380,2022-02-13_16h26.15.457,multiplicationStroop,2021.2.3,MacIntel,60.04202942,,,,,,,,,,,,,,,,,,,,,,,,,,,,,,,,,28,4.3125,1,0,3,3,13,1,4,×,7,4 × 7,congruent,smallerFirst,1,2,28,,,,,,,,
,,,,,,,,,,,,,,,8380,2022-02-13_16h26.15.457,multiplicationStroop,2021.2.3,MacIntel,60.04202942,,,,,,,,,,,,,,,,,,,,,,,,,,,,,,,,,8,2.6985,1,0,4,4,23,1,4,×,2,4 × 2,congruent,largerFirst,2,1,8,,,,,,,,
,,,,,,,,,,,,,,,8380,2022-02-13_16h26.15.457,multiplicationStroop,2021.2.3,MacIntel,60.04202942,,,,,,,,,,,,,,,,,,,,,,,,,,,,,,,,,18,2.2828,1,0,5,5,8,1,2,×,9,2 × 9,congruent,smallerFirst,1,2,18,,,,,,,,
,,,,,,,,,,,,,,,8380,2022-02-13_16h26.15.457,multiplicationStroop,2021.2.3,MacIntel,60.04202942,,,,,,,,,,,,,,,,,,,,,,,,,,,,,,,,,24,4.0115,1,0,6,6,11,1,4,×,6,4 × 6,congruent,smallerFirst,1,2,24,,,,,,,,
,,,,,,,,,,,,,,,8380,2022-02-13_16h26.15.457,multiplicationStroop,2021.2.3,MacIntel,60.04202942,,,,,,,,,,,,,,,,,,,,,,,,,,,,,,,,,32,4.0115,1,0,7,7,6,1,4,×,8,4 × 8,congruent,smallerFirst,1,2,32,,,,,,,,
,,,,,,,,,,,,,,,8380,2022-02-13_16h26.15.457,multiplicationStroop,2021.2.3,MacIntel,60.04202942,,,,,,,,,,,,,,,,,,,,,,,,,,,,,,,,,15,2.4151,1,0,8,8,18,1,5,×,3,5 × 3,congruent,largerFirst,2,1,15,,,,,,,,
,,,,,,,,,,,,,,,8380,2022-02-13_16h26.15.457,multiplicationStroop,2021.2.3,MacIntel,60.04202942,,,,,,,,,,,,,,,,,,,,,,,,,,,,,,,,,42,3.9458,1,0,9,9,17,1,7,×,6,7 × 6,congruent,largerFirst,2,1,42,,,,,,,,
,,,,,,,,,,,,,,,8380,2022-02-13_16h26.15.457,multiplicationStroop,2021.2.3,MacIntel,60.04202942,,,,,,,,,,,,,,,,,,,,,,,,,,,,,,,,,63,6.2771,1,0,10,10,7,1,7,×,9,7 × 9,congruent,smallerFirst,1,2,63,,,,,,,,
,,,,,,,,,,,,,,,8380,2022-02-13_16h26.15.457,multiplicationStroop,2021.2.3,MacIntel,60.04202942,,,,,,,,,,,,,,,,,,,,,,,,,,,,,,,,,40,3.5123,1,0,11,11,20,1,8,×,5,8 × 5,congruent,largerFirst,2,1,40,,,,,,,,
,,,,,,,,,,,,,,,8380,2022-02-13_16h26.15.457,multiplicationStroop,2021.2.3,MacIntel,60.04202942,,,,,,,,,,,,,,,,,,,,,,,,,,,,,,,,,18,3.6303,1,0,12,12,25,1,6,×,3,6 × 3,congruent,largerFirst,2,1,18,,,,,,,,
,,,,,,,,,,,,,,,8380,2022-02-13_16h26.15.457,multiplicationStroop,2021.2.3,MacIntel,60.04202942,,,,,,,,,,,,,,,,,,,,,,,,,,,,,,,,,48,4.4799,1,0,13,13,4,1,6,×,8,6 × 8,congruent,smallerFirst,1,2,48,,,,,,,,
,,,,,,,,,,,,,,,8380,2022-02-13_16h26.15.457,multiplicationStroop,2021.2.3,MacIntel,60.04202942,,,,,,,,,,,,,,,,,,,,,,,,,,,,,,,,,72,9.6107,1,0,14,14,3,1,8,×,9,8 × 9,congruent,smallerFirst,1,2,72,,,,,,,,
,,,,,,,,,,,,,,,8380,2022-02-13_16h26.15.457,multiplicationStroop,2021.2.3,MacIntel,60.04202942,,,,,,,,,,,,,,,,,,,,,,,,,,,,,,,,,16,3.3641,1,0,15,15,30,1,4,×,4,4 × 4,neutral,tie,1,2,16,,,,,,,,
,,,,,,,,,,,,,,,8380,2022-02-13_16h26.15.457,multiplicationStroop,2021.2.3,MacIntel,60.04202942,,,,,,,,,,,,,,,,,,,,,,,,,,,,,,,,,20,2.2294,1,0,16,16,21,1,5,×,4,5 × 4,congruent,largerFirst,2,1,20,,,,,,,,
,,,,,,,,,,,,,,,8380,2022-02-13_16h26.15.457,multiplicationStroop,2021.2.3,MacIntel,60.04202942,,,,,,,,,,,,,,,,,,,,,,,,,,,,,,,,,12,2.1483,1,0,17,17,5,1,2,×,6,2 × 6,congruent,smallerFirst,1,2,12,,,,,,,,
,,,,,,,,,,,,,,,8380,2022-02-13_16h26.15.457,multiplicationStroop,2021.2.3,MacIntel,60.04202942,,,,,,,,,,,,,,,,,,,,,,,,,,,,,,,,,231,4.2477,0,0,18,18,2,1,3,×,7,3 × 7,congruent,smallerFirst,1,2,21,,,,,,,,
,,,,,,,,,,,,,,,8380,2022-02-13_16h26.15.457,multiplicationStroop,2021.2.3,MacIntel,60.04202942,,,,,,,,,,,,,,,,,,,,,,,,,,,,,,,,,35,4.7617,1,0,19,19,15,1,7,×,5,7 × 5,congruent,largerFirst,2,1,35,,,,,,,,
,,,,,,,,,,,,,,,8380,2022-02-13_16h26.15.457,multiplicationStroop,2021.2.3,MacIntel,60.04202942,,,,,,,,,,,,,,,,,,,,,,,,,,,,,,,,,56,3.796,1,0,20,20,22,1,8,×,7,8 × 7,congruent,largerFirst,2,1,56,,,,,,,,
,,,,,,,,,,,,,,,8380,2022-02-13_16h26.15.457,multiplicationStroop,2021.2.3,MacIntel,60.04202942,,,,,,,,,,,,,,,,,,,,,,,,,,,,,,,,,14,1.9991,1,0,21,21,0,1,2,×,7,2 × 7,congruent,smallerFirst,1,2,14,,,,,,,,
,,,,,,,,,,,,,,,8380,2022-02-13_16h26.15.457,multiplicationStroop,2021.2.3,MacIntel,60.04202942,,,,,,,,,,,,,,,,,,,,,,,,,,,,,,,,,25,4.3463,1,0,22,22,31,1,5,×,5,5 × 5,neutral,tie,1,2,25,,,,,,,,
,,,,,,,,,,,,,,,8380,2022-02-13_16h26.15.457,multiplicationStroop,2021.2.3,MacIntel,60.04202942,,,,,,,,,,,,,,,,,,,,,,,,,,,,,,,,,12,1.6962,0,0,23,23,27,1,3,×,2,3 × 2,congruent,largerFirst,2,1,6,,,,,,,,
,,,,,,,,,,,,,,,8380,2022-02-13_16h26.15.457,multiplicationStroop,2021.2.3,MacIntel,60.04202942,,,,,,,,,,,,,,,,,,,,,,,,,,,,,,,,,9,2.7648,1,0,24,24,29,1,3,×,3,3 × 3,neutral,tie,1,2,9,,,,,,,,
,,,,,,,,,,,,,,,8380,2022-02-13_16h26.15.457,multiplicationStroop,2021.2.3,MacIntel,60.04202942,,,,,,,,,,,,,,,,,,,,,,,,,,,,,,,,,16,2.6295,1,0,25,25,19,1,8,×,2,8 × 2,congruent,largerFirst,2,1,16,,,,,,,,
,,,,,,,,,,,,,,,8380,2022-02-13_16h26.15.457,multiplicationStroop,2021.2.3,MacIntel,60.04202942,,,,,,,,,,,,,,,,,,,,,,,,,,,,,,,,,54,3.6824,1,0,26,26,26,1,9,×,6,9 × 6,congruent,largerFirst,2,1,54,,,,,,,,
,,,,,,,,,,,,,,,8380,2022-02-13_16h26.15.457,multiplicationStroop,2021.2.3,MacIntel,60.04202942,,,,,,,,,,,,,,,,,,,,,,,,,,,,,,,,,30,2.3478,1,0,27,27,1,1,5,×,6,5 × 6,congruent,smallerFirst,1,2,30,,,,,,,,
,,,,,,,,,,,,,,,8380,2022-02-13_16h26.15.457,multiplicationStroop,2021.2.3,MacIntel,60.04202942,,,,,,,,,,,,,,,,,,,,,,,,,,,,,,,,,24,3.1314,0,0,28,28,16,1,4,×,3,4 × 3,congruent,largerFirst,2,1,12,,,,,,,,
,,,,,,,,,,,,,,,8380,2022-02-13_16h26.15.457,multiplicationStroop,2021.2.3,MacIntel,60.04202942,,,,,,,,,,,,,,,,,,,,,,,,,,,,,,,,,36,4.1642,1,0,29,29,32,1,6,×,6,6 × 6,neutral,tie,1,2,36,,,,,,,,
,,,,,,,,,,,,,,,8380,2022-02-13_16h26.15.457,multiplicationStroop,2021.2.3,MacIntel,60.04202942,,,,,,,,,,,,,,,,,,,,,,,,,,,,,,,,,45,3.6426,1,0,30,30,9,1,5,×,9,5 × 9,congruent,smallerFirst,1,2,45,,,,,,,,
,,,,,,,,,,,,,,,8380,2022-02-13_16h26.15.457,multiplicationStroop,2021.2.3,MacIntel,60.04202942,,,,,,,,,,,,,,,,,,,,,,,,,,,,,,,,,0,3.6618,0,0,31,31,10,1,2,×,5,2 × 5,congruent,smallerFirst,1,2,10,,,,,,,,
,,,,,,,,,,,,,,,8380,2022-02-13_16h26.15.457,multiplicationStroop,2021.2.3,MacIntel,60.04202942,,,,,,,,,,,,,,,,,,,,,,,,,,,,,,,,,4,2.6303,1,0,32,32,28,1,2,×,2,2 × 2,neutral,tie,1,2,4,,,,,,,,
,,,,,,,,,,,,,,,8380,2022-02-13_16h26.15.457,multiplicationStroop,2021.2.3,MacIntel,60.04202942,,,,,,,,,,,,,,,,,,,,,,,,,,,,,,,,,64,4.4289,1,0,33,33,34,1,8,×,8,8 × 8,neutral,tie,1,2,64,,,,,,,,
,,,,,,,,,,,,,,,8380,2022-02-13_16h26.15.457,multiplicationStroop,2021.2.3,MacIntel,60.04202942,,,,,,,,,,,,,,,,,,,,,,,,,,,,,,,,,27,3.4621,1,0,34,34,12,1,3,×,9,3 × 9,congruent,smallerFirst,1,2,27,,,,,,,,
,,,,,,,,,,,,,,,8380,2022-02-13_16h26.15.457,multiplicationStroop,2021.2.3,MacIntel,60.04202942,,,,,,,,,,,,,,,,,,,,,,,,,,,,,,,,,24,4.4937,1,0,35,35,24,1,8,×,3,8 × 3,congruent,largerFirst,2,1,24,,,,,,,,
,,,,,,,,,,,,,,,8380,2022-02-13_16h26.15.457,multiplicationStroop,2021.2.3,MacIntel,60.04202942,,,,,,,,,,,,,,,,,,,,,,,,,,,,,,,,,,,,,,,,,,,,,,,,,,0,4,4,3,1,stimulusFile/mult_blk4_congruent.xlsx,,
,,,,,,,,,,,,,,,8380,2022-02-13_16h26.15.457,multiplicationStroop,2021.2.3,MacIntel,60.04202942,,,,,,,,,,,,,,,,,,,,,,,,,,,,,,,space,1.6691,49,4.5462,1,0,0,0,33,1,7,×,7,7 × 7,neutral,tie,2,1,49,,,,,,,,
,,,,,,,,,,,,,,,8380,2022-02-13_16h26.15.457,multiplicationStroop,2021.2.3,MacIntel,60.04202942,,,,,,,,,,,,,,,,,,,,,,,,,,,,,,,,,12,1.8668,0,0,1,1,13,1,2,×,3,2 × 3,congruent,smallerFirst,1,2,6,,,,,,,,
,,,,,,,,,,,,,,,8380,2022-02-13_16h26.15.457,multiplicationStroop,2021.2.3,MacIntel,60.04202942,,,,,,,,,,,,,,,,,,,,,,,,,,,,,,,,,4,1.2803,1,0,2,2,28,1,2,×,2,2 × 2,neutral,tie,2,1,4,,,,,,,,
,,,,,,,,,,,,,,,8380,2022-02-13_16h26.15.457,multiplicationStroop,2021.2.3,MacIntel,60.04202942,,,,,,,,,,,,,,,,,,,,,,,,,,,,,,,,,15,1.9991,1,0,3,3,4,1,3,×,5,3 × 5,congruent,smallerFirst,1,2,15,,,,,,,,
,,,,,,,,,,,,,,,8380,2022-02-13_16h26.15.457,multiplicationStroop,2021.2.3,MacIntel,60.04202942,,,,,,,,,,,,,,,,,,,,,,,,,,,,,,,,,42,3.8631,1,0,4,4,3,1,6,×,7,6 × 7,congruent,smallerFirst,1,2,42,,,,,,,,
,,,,,,,,,,,,,,,8380,2022-02-13_16h26.15.457,multiplicationStroop,2021.2.3,MacIntel,60.04202942,,,,,,,,,,,,,,,,,,,,,,,,,,,,,,,,,12,1.7264,1,0,5,5,19,1,6,×,2,6 × 2,congruent,largerFirst,2,1,12,,,,,,,,
,,,,,,,,,,,,,,,8380,2022-02-13_16h26.15.457,multiplicationStroop,2021.2.3,MacIntel,60.04202942,,,,,,,,,,,,,,,,,,,,,,,,,,,,,,,,,12,2.4645,1,0,6,6,2,1,3,×,4,3 × 4,congruent,smallerFirst,1,2,12,,,,,,,,
,,,,,,,,,,,,,,,8380,2022-02-13_16h26.15.457,multiplicationStroop,2021.2.3,MacIntel,60.04202942,,,,,,,,,,,,,,,,,,,,,,,,,,,,,,,,,21,3.8146,1,0,7,7,16,1,7,×,3,7 × 3,congruent,largerFirst,2,1,21,,,,,,,,
,,,,,,,,,,,,,,,8380,2022-02-13_16h26.15.457,multiplicationStroop,2021.2.3,MacIntel,60.04202942,,,,,,,,,,,,,,,,,,,,,,,,,,,,,,,,,16,2.0966,1,0,8,8,5,1,2,×,8,2 × 8,congruent,smallerFirst,1,2,16,,,,,,,,
,,,,,,,,,,,,,,,8380,2022-02-13_16h26.15.457,multiplicationStroop,2021.2.3,MacIntel,60.04202942,,,,,,,,,,,,,,,,,,,,,,,,,,,,,,,,,63,4.3309,1,0,9,9,21,1,9,×,7,9 × 7,congruent,largerFirst,2,1,63,,,,,,,,
,,,,,,,,,,,,,,,8380,2022-02-13_16h26.15.457,multiplicationStroop,2021.2.3,MacIntel,60.04202942,,,,,,,,,,,,,,,,,,,,,,,,,,,,,,,,,32,4.3443,1,0,10,10,20,1,8,×,4,8 × 4,congruent,largerFirst,2,1,32,,,,,,,,
,,,,,,,,,,,,,,,8380,2022-02-13_16h26.15.457,multiplicationStroop,2021.2.3,MacIntel,60.04202942,,,,,,,,,,,,,,,,,,,,,,,,,,,,,,,,,10,2.549,1,0,11,11,24,1,5,×,2,5 × 2,congruent,largerFirst,2,1,10,,,,,,,,
,,,,,,,,,,,,,,,8380,2022-02-13_16h26.15.457,multiplicationStroop,2021.2.3,MacIntel,60.04202942,,,,,,,,,,,,,,,,,,,,,,,,,,,,,,,,,18,4.8106,1,0,12,12,11,1,3,×,6,3 × 6,congruent,smallerFirst,1,2,18,,,,,,,,
,,,,,,,,,,,,,,,8380,2022-02-13_16h26.15.457,multiplicationStroop,2021.2.3,MacIntel,60.04202942,,,,,,,,,,,,,,,,,,,,,,,,,,,,,,,,,25,2.9273,1,0,13,13,31,1,5,×,5,5 × 5,neutral,tie,2,1,25,,,,,,,,
,,,,,,,,,,,,,,,8380,2022-02-13_16h26.15.457,multiplicationStroop,2021.2.3,MacIntel,60.04202942,,,,,,,,,,,,,,,,,,,,,,,,,,,,,,,,,56,6.3423,1,0,14,14,8,1,7,×,8,7 × 8,congruent,smallerFirst,1,2,56,,,,,,,,
,,,,,,,,,,,,,,,8380,2022-02-13_16h26.15.457,multiplicationStroop,2021.2.3,MacIntel,60.04202942,,,,,,,,,,,,,,,,,,,,,,,,,,,,,,,,,24,7.81,1,0,15,15,10,1,3,×,8,3 × 8,congruent,smallerFirst,1,2,24,,,,,,,,
,,,,,,,,,,,,,,,8380,2022-02-13_16h26.15.457,multiplicationStroop,2021.2.3,MacIntel,60.04202942,,,,,,,,,,,,,,,,,,,,,,,,,,,,,,,,,72,5.7297,1,0,16,16,17,1,9,×,8,9 × 8,congruent,largerFirst,2,1,72,,,,,,,,
,,,,,,,,,,,,,,,8380,2022-02-13_16h26.15.457,multiplicationStroop,2021.2.3,MacIntel,60.04202942,,,,,,,,,,,,,,,,,,,,,,,,,,,,,,,,,81,6.9786,1,0,17,17,35,1,9,×,9,9 × 9,neutral,tie,2,1,81,,,,,,,,
,,,,,,,,,,,,,,,8380,2022-02-13_16h26.15.457,multiplicationStroop,2021.2.3,MacIntel,60.04202942,,,,,,,,,,,,,,,,,,,,,,,,,,,,,,,,,14,6.6505,1,0,18,18,14,1,7,×,2,7 × 2,congruent,largerFirst,2,1,14,,,,,,,,
,,,,,,,,,,,,,,,8380,2022-02-13_16h26.15.457,multiplicationStroop,2021.2.3,MacIntel,60.04202942,,,,,,,,,,,,,,,,,,,,,,,,,,,,,,,,,20,2.4816,1,0,19,19,7,1,4,×,5,4 × 5,congruent,smallerFirst,1,2,20,,,,,,,,
,,,,,,,,,,,,,,,8380,2022-02-13_16h26.15.457,multiplicationStroop,2021.2.3,MacIntel,60.04202942,,,,,,,,,,,,,,,,,,,,,,,,,,,,,,,,,18,7.3281,1,0,20,20,22,1,9,×,2,9 × 2,congruent,largerFirst,2,1,18,,,,,,,,
,,,,,,,,,,,,,,,8380,2022-02-13_16h26.15.457,multiplicationStroop,2021.2.3,MacIntel,60.04202942,,,,,,,,,,,,,,,,,,,,,,,,,,,,,,,,,24,4.2471,1,0,21,21,25,1,6,×,4,6 × 4,congruent,largerFirst,2,1,24,,,,,,,,
,,,,,,,,,,,,,,,8380,2022-02-13_16h26.15.457,multiplicationStroop,2021.2.3,MacIntel,60.04202942,,,,,,,,,,,,,,,,,,,,,,,,,,,,,,,,,28,4.4144,1,0,22,22,27,1,7,×,4,7 × 4,congruent,largerFirst,2,1,28,,,,,,,,
,,,,,,,,,,,,,,,8380,2022-02-13_16h26.15.457,multiplicationStroop,2021.2.3,MacIntel,60.04202942,,,,,,,,,,,,,,,,,,,,,,,,,,,,,,,,,16,3.6319,1,0,23,23,30,1,4,×,4,4 × 4,neutral,tie,2,1,16,,,,,,,,
,,,,,,,,,,,,,,,8380,2022-02-13_16h26.15.457,multiplicationStroop,2021.2.3,MacIntel,60.04202942,,,,,,,,,,,,,,,,,,,,,,,,,,,,,,,,,64,4.2459,1,0,24,24,34,1,8,×,8,8 × 8,neutral,tie,2,1,64,,,,,,,,
,,,,,,,,,,,,,,,8380,2022-02-13_16h26.15.457,multiplicationStroop,2021.2.3,MacIntel,60.04202942,,,,,,,,,,,,,,,,,,,,,,,,,,,,,,,,,54,4.3124,1,0,25,25,12,1,6,×,9,6 × 9,congruent,smallerFirst,1,2,54,,,,,,,,
,,,,,,,,,,,,,,,8380,2022-02-13_16h26.15.457,multiplicationStroop,2021.2.3,MacIntel,60.04202942,,,,,,,,,,,,,,,,,,,,,,,,,,,,,,,,,8,3.7453,1,0,26,26,9,1,2,×,4,2 × 4,congruent,smallerFirst,1,2,8,,,,,,,,
,,,,,,,,,,,,,,,8380,2022-02-13_16h26.15.457,multiplicationStroop,2021.2.3,MacIntel,60.04202942,,,,,,,,,,,,,,,,,,,,,,,,,,,,,,,,,45,2.28,1,0,27,27,23,1,9,×,5,9 × 5,congruent,largerFirst,2,1,45,,,,,,,,
,,,,,,,,,,,,,,,8380,2022-02-13_16h26.15.457,multiplicationStroop,2021.2.3,MacIntel,60.04202942,,,,,,,,,,,,,,,,,,,,,,,,,,,,,,,,,36,4.7299,1,0,28,28,0,1,4,×,9,4 × 9,congruent,smallerFirst,1,2,36,,,,,,,,
,,,,,,,,,,,,,,,8380,2022-02-13_16h26.15.457,multiplicationStroop,2021.2.3,MacIntel,60.04202942,,,,,,,,,,,,,,,,,,,,,,,,,,,,,,,,,30,3.264,1,0,29,29,15,1,6,×,5,6 × 5,congruent,largerFirst,2,1,30,,,,,,,,
,,,,,,,,,,,,,,,8380,2022-02-13_16h26.15.457,multiplicationStroop,2021.2.3,MacIntel,60.04202942,,,,,,,,,,,,,,,,,,,,,,,,,,,,,,,,,9,2.0473,1,0,30,30,29,1,3,×,3,3 × 3,neutral,tie,2,1,9,,,,,,,,
,,,,,,,,,,,,,,,8380,2022-02-13_16h26.15.457,multiplicationStroop,2021.2.3,MacIntel,60.04202942,,,,,,,,,,,,,,,,,,,,,,,,,,,,,,,,,36,3.3312,1,0,31,31,32,1,6,×,6,6 × 6,neutral,tie,2,1,36,,,,,,,,
,,,,,,,,,,,,,,,8380,2022-02-13_16h26.15.457,multiplicationStroop,2021.2.3,MacIntel,60.04202942,,,,,,,,,,,,,,,,,,,,,,,,,,,,,,,,,48,4.6628,1,0,32,32,18,1,8,×,6,8 × 6,congruent,largerFirst,2,1,48,,,,,,,,
,,,,,,,,,,,,,,,8380,2022-02-13_16h26.15.457,multiplicationStroop,2021.2.3,MacIntel,60.04202942,,,,,,,,,,,,,,,,,,,,,,,,,,,,,,,,,32,5.1618,0,0,33,33,6,1,5,×,8,5 × 8,congruent,smallerFirst,1,2,40,,,,,,,,
,,,,,,,,,,,,,,,8380,2022-02-13_16h26.15.457,multiplicationStroop,2021.2.3,MacIntel,60.04202942,,,,,,,,,,,,,,,,,,,,,,,,,,,,,,,,,35,10.3529,1,0,34,34,1,1,5,×,7,5 × 7,congruent,smallerFirst,1,2,35,,,,,,,,
,,,,,,,,,,,,,,,8380,2022-02-13_16h26.15.457,multiplicationStroop,2021.2.3,MacIntel,60.04202942,,,,,,,,,,,,,,,,,,,,,,,,,,,,,,,,,27,3.4599,1,0,35,35,26,1,9,×,3,9 × 3,congruent,largerFirst,2,1,27,,,,,,,,
,,,,,,,,,,,,,,,8380,2022-02-13_16h26.15.457,multiplicationStroop,2021.2.3,MacIntel,60.04202942,,,,,,,,,,,,,,,,,,,,,,,,,,,,,,,,,,,,,,,,,,,,,,,,,,0,5,5,2,1,stimulusFile/mult_blk3_congruent.xlsx,,
,,,,,,,,,,,,,,,8380,2022-02-13_16h26.15.457,multiplicationStroop,2021.2.3,MacIntel,60.04202942,,,,,,,,,,,,,,,,,,,,,,,,,,,,,,,,,,,,,,,,,,,,,,,,,,,,,,,,space,7.1097