welcomeKey_resp.keys,welcomeKey_resp.rt,X Scale,Y Scale,rt_resp_4.keys,rt_resp_4.corr,rt_resp_4.rt,speedtest_2.thisRepN,speedtest_2.thisTrialN,speedtest_2.thisN,speedtest_2.thisIndex,speedtest_2.ran,numberSc,posX,positionLayout,participant,date,expName,psychopyVersion,OS,frameRate,ct_instrresp.keys,ct_instrresp.rt,key_resp_2.keys,key_resp_2.rt,ct_keyResp.keys,ct_keyResp.corr,ct_keyResp.rt,trials.thisRepN,trials.thisTrialN,trials.thisN,trials.thisIndex,trials.ran,leftNo,rightNo,displayProblem,numDistance,leftNo_size,rightNo_size,Dims,keyAnswer,TS_Loop.thisRepN,TS_Loop.thisTrialN,TS_Loop.thisN,TS_Loop.thisIndex,TS_Loop.ran,Condition,ActionInst,instrImage,mltptaskInst_resp.keys,mltptaskInst_resp.rt,continue_resp_2.keys,continue_resp_2.rt,multp_Answer,multi_RT,multiplyCorr,LoopingMultiply.thisRepN,LoopingMultiply.thisTrialN,LoopingMultiply.thisN,LoopingMultiply.thisIndex,LoopingMultiply.ran,factor1,multiplySign,factor2,multliplyProblem,physicalSize,orderOperand,sizeF1,sizeF2,mult_answer,trials_stroop.thisRepN,trials_stroop.thisTrialN,trials_stroop.thisN,trials_stroop.thisIndex,trials_stroop.ran,multiplicationFile,esckey_resp_2.keys,esckey_resp_2.rt
y,21.1048,43.2,44.2,left,1,0.7664,0,0,0,4,1,6,-200,left,8389,2022-02-24_22h33.58.334,multiplicationStroop,2021.2.3,Win32,59.96282305,,,,,,,,,,,,,,,,,,,,,,,,,,,,,,,,,,,,,,,,,,,,,,,,,,,,,,,,,
,,,,left,1,0.4173,0,1,1,3,1,4,-200,left,8389,2022-02-24_22h33.58.334,multiplicationStroop,2021.2.3,Win32,59.96282305,,,,,,,,,,,,,,,,,,,,,,,,,,,,,,,,,,,,,,,,,,,,,,,,,,,,,,,,,
,,,,right,1,0.4176,0,2,2,12,1,6,200,right,8389,2022-02-24_22h33.58.334,multiplicationStroop,2021.2.3,Win32,59.96282305,,,,,,,,,,,,,,,,,,,,,,,,,,,,,,,,,,,,,,,,,,,,,,,,,,,,,,,,,
,,,,left,1,0.3344,0,3,3,5,1,7,-200,left,8389,2022-02-24_22h33.58.334,multiplicationStroop,2021.2.3,Win32,59.96282305,,,,,,,,,,,,,,,,,,,,,,,,,,,,,,,,,,,,,,,,,,,,,,,,,,,,,,,,,
,,,,right,1,0.2838,0,4,4,9,1,2,200,right,8389,2022-02-24_22h33.58.334,multiplicationStroop,2021.2.3,Win32,59.96282305,,,,,,,,,,,,,,,,,,,,,,,,,,,,,,,,,,,,,,,,,,,,,,,,,,,,,,,,,
,,,,left,1,0.2677,0,5,5,6,1,8,-200,left,8389,2022-02-24_22h33.58.334,multiplicationStroop,2021.2.3,Win32,59.96282305,,,,,,,,,,,,,,,,,,,,,,,,,,,,,,,,,,,,,,,,,,,,,,,,,,,,,,,,,
,,,,right,1,0.2998,0,6,6,8,1,1,200,right,8389,2022-02-24_22h33.58.334,multiplicationStroop,2021.2.3,Win32,59.96282305,,,,,,,,,,,,,,,,,,,,,,,,,,,,,,,,,,,,,,,,,,,,,,,,,,,,,,,,,
,,,,right,1,0.3674,0,7,7,15,1,9,200,right,8389,2022-02-24_22h33.58.334,multiplicationStroop,2021.2.3,Win32,59.96282305,,,,,,,,,,,,,,,,,,,,,,,,,,,,,,,,,,,,,,,,,,,,,,,,,,,,,,,,,
,,,,right,1,0.2842,0,8,8,14,1,8,200,right,8389,2022-02-24_22h33.58.334,multiplicationStroop,2021.2.3,Win32,59.96282305,,,,,,,,,,,,,,,,,,,,,,,,,,,,,,,,,,,,,,,,,,,,,,,,,,,,,,,,,
,,,,left,1,0.334,0,9,9,0,1,1,-200,left,8389,2022-02-24_22h33.58.334,multiplicationStroop,2021.2.3,Win32,59.96282305,,,,,,,,,,,,,,,,,,,,,,,,,,,,,,,,,,,,,,,,,,,,,,,,,,,,,,,,,
,,,,left,1,0.5505,0,10,10,1,1,2,-200,left,8389,2022-02-24_22h33.58.334,multiplicationStroop,2021.2.3,Win32,59.96282305,,,,,,,,,,,,,,,,,,,,,,,,,,,,,,,,,,,,,,,,,,,,,,,,,,,,,,,,,
,,,,right,1,0.3343,0,11,11,10,1,3,200,right,8389,2022-02-24_22h33.58.334,multiplicationStroop,2021.2.3,Win32,59.96282305,,,,,,,,,,,,,,,,,,,,,,,,,,,,,,,,,,,,,,,,,,,,,,,,,,,,,,,,,
,,,,right,1,0.3172,0,12,12,13,1,7,200,right,8389,2022-02-24_22h33.58.334,multiplicationStroop,2021.2.3,Win32,59.96282305,,,,,,,,,,,,,,,,,,,,,,,,,,,,,,,,,,,,,,,,,,,,,,,,,,,,,,,,,
,,,,left,1,0.3007,0,13,13,7,1,9,-200,left,8389,2022-02-24_22h33.58.334,multiplicationStroop,2021.2.3,Win32,59.96282305,,,,,,,,,,,,,,,,,,,,,,,,,,,,,,,,,,,,,,,,,,,,,,,,,,,,,,,,,
,,,,left,1,0.2892,0,14,14,2,1,3,-200,left,8389,2022-02-24_22h33.58.334,multiplicationStroop,2021.2.3,Win32,59.96282305,,,,,,,,,,,,,,,,,,,,,,,,,,,,,,,,,,,,,,,,,,,,,,,,,,,,,,,,,
,,,,right,1,0.2854,0,15,15,11,1,4,200,right,8389,2022-02-24_22h33.58.334,multiplicationStroop,2021.2.3,Win32,59.96282305,,,,,,,,,,,,,,,,,,,,,,,,,,,,,,,,,,,,,,,,,,,,,,,,,,,,,,,,,
,,,,left,1,0.2508,1,0,16,5,1,7,-200,left,8389,2022-02-24_22h33.58.334,multiplicationStroop,2021.2.3,Win32,59.96282305,,,,,,,,,,,,,,,,,,,,,,,,,,,,,,,,,,,,,,,,,,,,,,,,,,,,,,,,,
,,,,right,1,0.2512,1,1,17,14,1,8,200,right,8389,2022-02-24_22h33.58.334,multiplicationStroop,2021.2.3,Win32,59.96282305,,,,,,,,,,,,,,,,,,,,,,,,,,,,,,,,,,,,,,,,,,,,,,,,,,,,,,,,,
,,,,left,1,0.1727,1,2,18,4,1,6,-200,left,8389,2022-02-24_22h33.58.334,multiplicationStroop,2021.2.3,Win32,59.96282305,,,,,,,,,,,,,,,,,,,,,,,,,,,,,,,,,,,,,,,,,,,,,,,,,,,,,,,,,
,,,,left,1,0.4008,1,3,19,3,1,4,-200,left,8389,2022-02-24_22h33.58.334,multiplicationStroop,2021.2.3,Win32,59.96282305,,,,,,,,,,,,,,,,,,,,,,,,,,,,,,,,,,,,,,,,,,,,,,,,,,,,,,,,,
,,,,right,1,0.2835,1,4,20,13,1,7,200,right,8389,2022-02-24_22h33.58.334,multiplicationStroop,2021.2.3,Win32,59.96282305,,,,,,,,,,,,,,,,,,,,,,,,,,,,,,,,,,,,,,,,,,,,,,,,,,,,,,,,,
,,,,left,0,0.2558,1,5,21,15,1,9,200,right,8389,2022-02-24_22h33.58.334,multiplicationStroop,2021.2.3,Win32,59.96282305,,,,,,,,,,,,,,,,,,,,,,,,,,,,,,,,,,,,,,,,,,,,,,,,,,,,,,,,,
,,,,right,1,0.6348,1,6,22,8,1,1,200,right,8389,2022-02-24_22h33.58.334,multiplicationStroop,2021.2.3,Win32,59.96282305,,,,,,,,,,,,,,,,,,,,,,,,,,,,,,,,,,,,,,,,,,,,,,,,,,,,,,,,,
,,,,left,1,0.3664,1,7,23,7,1,9,-200,left,8389,2022-02-24_22h33.58.334,multiplicationStroop,2021.2.3,Win32,59.96282305,,,,,,,,,,,,,,,,,,,,,,,,,,,,,,,,,,,,,,,,,,,,,,,,,,,,,,,,,
,,,,left,1,0.3187,1,8,24,2,1,3,-200,left,8389,2022-02-24_22h33.58.334,multiplicationStroop,2021.2.3,Win32,59.96282305,,,,,,,,,,,,,,,,,,,,,,,,,,,,,,,,,,,,,,,,,,,,,,,,,,,,,,,,,
,,,,left,1,0.284,1,9,25,1,1,2,-200,left,8389,2022-02-24_22h33.58.334,multiplicationStroop,2021.2.3,Win32,59.96282305,,,,,,,,,,,,,,,,,,,,,,,,,,,,,,,,,,,,,,,,,,,,,,,,,,,,,,,,,
,,,,right,1,0.3177,1,10,26,11,1,4,200,right,8389,2022-02-24_22h33.58.334,multiplicationStroop,2021.2.3,Win32,59.96282305,,,,,,,,,,,,,,,,,,,,,,,,,,,,,,,,,,,,,,,,,,,,,,,,,,,,,,,,,
,,,,left,1,0.2897,1,11,27,6,1,8,-200,left,8389,2022-02-24_22h33.58.334,multiplicationStroop,2021.2.3,Win32,59.96282305,,,,,,,,,,,,,,,,,,,,,,,,,,,,,,,,,,,,,,,,,,,,,,,,,,,,,,,,,
,,,,right,1,0.3346,1,12,28,9,1,2,200,right,8389,2022-02-24_22h33.58.334,multiplicationStroop,2021.2.3,Win32,59.96282305,,,,,,,,,,,,,,,,,,,,,,,,,,,,,,,,,,,,,,,,,,,,,,,,,,,,,,,,,
,,,,left,1,0.2509,1,13,29,0,1,1,-200,left,8389,2022-02-24_22h33.58.334,multiplicationStroop,2021.2.3,Win32,59.96282305,,,,,,,,,,,,,,,,,,,,,,,,,,,,,,,,,,,,,,,,,,,,,,,,,,,,,,,,,
,,,,right,1,0.288,1,14,30,10,1,3,200,right,8389,2022-02-24_22h33.58.334,multiplicationStroop,2021.2.3,Win32,59.96282305,,,,,,,,,,,,,,,,,,,,,,,,,,,,,,,,,,,,,,,,,,,,,,,,,,,,,,,,,
,,,,right,1,0.368,1,15,31,12,1,6,200,right,8389,2022-02-24_22h33.58.334,multiplicationStroop,2021.2.3,Win32,59.96282305,,,,,,,,,,,,,,,,,,,,,,,,,,,,,,,,,,,,,,,,,,,,,,,,,,,,,,,,,
,,,,left,1,0.3352,2,0,32,3,1,4,-200,left,8389,2022-02-24_22h33.58.334,multiplicationStroop,2021.2.3,Win32,59.96282305,,,,,,,,,,,,,,,,,,,,,,,,,,,,,,,,,,,,,,,,,,,,,,,,,,,,,,,,,
,,,,right,1,0.2843,2,1,33,10,1,3,200,right,8389,2022-02-24_22h33.58.334,multiplicationStroop,2021.2.3,Win32,59.96282305,,,,,,,,,,,,,,,,,,,,,,,,,,,,,,,,,,,,,,,,,,,,,,,,,,,,,,,,,
,,,,left,1,0.2344,2,2,34,0,1,1,-200,left,8389,2022-02-24_22h33.58.334,multiplicationStroop,2021.2.3,Win32,59.96282305,,,,,,,,,,,,,,,,,,,,,,,,,,,,,,,,,,,,,,,,,,,,,,,,,,,,,,,,,
,,,,right,1,0.2339,2,3,35,13,1,7,200,right,8389,2022-02-24_22h33.58.334,multiplicationStroop,2021.2.3,Win32,59.96282305,,,,,,,,,,,,,,,,,,,,,,,,,,,,,,,,,,,,,,,,,,,,,,,,,,,,,,,,,
,,,,right,1,0.2509,2,4,36,15,1,9,200,right,8389,2022-02-24_22h33.58.334,multiplicationStroop,2021.2.3,Win32,59.96282305,,,,,,,,,,,,,,,,,,,,,,,,,,,,,,,,,,,,,,,,,,,,,,,,,,,,,,,,,
,,,,right,1,0.2682,2,5,37,11,1,4,200,right,8389,2022-02-24_22h33.58.334,multiplicationStroop,2021.2.3,Win32,59.96282305,,,,,,,,,,,,,,,,,,,,,,,,,,,,,,,,,,,,,,,,,,,,,,,,,,,,,,,,,
,,,,left,1,0.3511,2,6,38,6,1,8,-200,left,8389,2022-02-24_22h33.58.334,multiplicationStroop,2021.2.3,Win32,59.96282305,,,,,,,,,,,,,,,,,,,,,,,,,,,,,,,,,,,,,,,,,,,,,,,,,,,,,,,,,
,,,,right,1,0.2352,2,7,39,14,1,8,200,right,8389,2022-02-24_22h33.58.334,multiplicationStroop,2021.2.3,Win32,59.96282305,,,,,,,,,,,,,,,,,,,,,,,,,,,,,,,,,,,,,,,,,,,,,,,,,,,,,,,,,
,,,,left,1,0.2039,2,8,40,4,1,6,-200,left,8389,2022-02-24_22h33.58.334,multiplicationStroop,2021.2.3,Win32,59.96282305,,,,,,,,,,,,,,,,,,,,,,,,,,,,,,,,,,,,,,,,,,,,,,,,,,,,,,,,,
,,,,left,1,0.355,2,9,41,2,1,3,-200,left,8389,2022-02-24_22h33.58.334,multiplicationStroop,2021.2.3,Win32,59.96282305,,,,,,,,,,,,,,,,,,,,,,,,,,,,,,,,,,,,,,,,,,,,,,,,,,,,,,,,,
,,,,left,1,0.2842,2,10,42,5,1,7,-200,left,8389,2022-02-24_22h33.58.334,multiplicationStroop,2021.2.3,Win32,59.96282305,,,,,,,,,,,,,,,,,,,,,,,,,,,,,,,,,,,,,,,,,,,,,,,,,,,,,,,,,
,,,,right,1,0.3843,2,11,43,12,1,6,200,right,8389,2022-02-24_22h33.58.334,multiplicationStroop,2021.2.3,Win32,59.96282305,,,,,,,,,,,,,,,,,,,,,,,,,,,,,,,,,,,,,,,,,,,,,,,,,,,,,,,,,
,,,,left,1,0.234,2,12,44,7,1,9,-200,left,8389,2022-02-24_22h33.58.334,multiplicationStroop,2021.2.3,Win32,59.96282305,,,,,,,,,,,,,,,,,,,,,,,,,,,,,,,,,,,,,,,,,,,,,,,,,,,,,,,,,
,,,,right,0,0.2857,2,13,45,1,1,2,-200,left,8389,2022-02-24_22h33.58.334,multiplicationStroop,2021.2.3,Win32,59.96282305,,,,,,,,,,,,,,,,,,,,,,,,,,,,,,,,,,,,,,,,,,,,,,,,,,,,,,,,,
,,,,right,1,0.6332,2,14,46,9,1,2,200,right,8389,2022-02-24_22h33.58.334,multiplicationStroop,2021.2.3,Win32,59.96282305,,,,,,,,,,,,,,,,,,,,,,,,,,,,,,,,,,,,,,,,,,,,,,,,,,,,,,,,,
,,,,right,1,0.4049,2,15,47,8,1,1,200,right,8389,2022-02-24_22h33.58.334,multiplicationStroop,2021.2.3,Win32,59.96282305,,,,,,,,,,,,,,,,,,,,,,,,,,,,,,,,,,,,,,,,,,,,,,,,,,,,,,,,,
,,,,right,1,0.3557,3,0,48,9,1,2,200,right,8389,2022-02-24_22h33.58.334,multiplicationStroop,2021.2.3,Win32,59.96282305,,,,,,,,,,,,,,,,,,,,,,,,,,,,,,,,,,,,,,,,,,,,,,,,,,,,,,,,,
,,,,right,1,0.4834,3,1,49,12,1,6,200,right,8389,2022-02-24_22h33.58.334,multiplicationStroop,2021.2.3,Win32,59.96282305,,,,,,,,,,,,,,,,,,,,,,,,,,,,,,,,,,,,,,,,,,,,,,,,,,,,,,,,,
,,,,right,1,0.388,3,2,50,15,1,9,200,right,8389,2022-02-24_22h33.58.334,multiplicationStroop,2021.2.3,Win32,59.96282305,,,,,,,,,,,,,,,,,,,,,,,,,,,,,,,,,,,,,,,,,,,,,,,,,,,,,,,,,
,,,,right,1,0.3008,3,3,51,8,1,1,200,right,8389,2022-02-24_22h33.58.334,multiplicationStroop,2021.2.3,Win32,59.96282305,,,,,,,,,,,,,,,,,,,,,,,,,,,,,,,,,,,,,,,,,,,,,,,,,,,,,,,,,
,,,,right,1,0.2845,3,4,52,14,1,8,200,right,8389,2022-02-24_22h33.58.334,multiplicationStroop,2021.2.3,Win32,59.96282305,,,,,,,,,,,,,,,,,,,,,,,,,,,,,,,,,,,,,,,,,,,,,,,,,,,,,,,,,
,,,,left,1,0.3897,3,5,53,6,1,8,-200,left,8389,2022-02-24_22h33.58.334,multiplicationStroop,2021.2.3,Win32,59.96282305,,,,,,,,,,,,,,,,,,,,,,,,,,,,,,,,,,,,,,,,,,,,,,,,,,,,,,,,,
,,,,left,1,0.334,3,6,54,3,1,4,-200,left,8389,2022-02-24_22h33.58.334,multiplicationStroop,2021.2.3,Win32,59.96282305,,,,,,,,,,,,,,,,,,,,,,,,,,,,,,,,,,,,,,,,,,,,,,,,,,,,,,,,,
,,,,right,1,0.4506,3,7,55,13,1,7,200,right,8389,2022-02-24_22h33.58.334,multiplicationStroop,2021.2.3,Win32,59.96282305,,,,,,,,,,,,,,,,,,,,,,,,,,,,,,,,,,,,,,,,,,,,,,,,,,,,,,,,,
,,,,left,1,0.3006,3,8,56,4,1,6,-200,left,8389,2022-02-24_22h33.58.334,multiplicationStroop,2021.2.3,Win32,59.96282305,,,,,,,,,,,,,,,,,,,,,,,,,,,,,,,,,,,,,,,,,,,,,,,,,,,,,,,,,
,,,,left,1,0.3506,3,9,57,0,1,1,-200,left,8389,2022-02-24_22h33.58.334,multiplicationStroop,2021.2.3,Win32,59.96282305,,,,,,,,,,,,,,,,,,,,,,,,,,,,,,,,,,,,,,,,,,,,,,,,,,,,,,,,,
,,,,right,1,0.3208,3,10,58,11,1,4,200,right,8389,2022-02-24_22h33.58.334,multiplicationStroop,2021.2.3,Win32,59.96282305,,,,,,,,,,,,,,,,,,,,,,,,,,,,,,,,,,,,,,,,,,,,,,,,,,,,,,,,,
,,,,left,1,0.2509,3,11,59,2,1,3,-200,left,8389,2022-02-24_22h33.58.334,multiplicationStroop,2021.2.3,Win32,59.96282305,,,,,,,,,,,,,,,,,,,,,,,,,,,,,,,,,,,,,,,,,,,,,,,,,,,,,,,,,
,,,,left,1,0.2678,3,12,60,5,1,7,-200,left,8389,2022-02-24_22h33.58.334,multiplicationStroop,2021.2.3,Win32,59.96282305,,,,,,,,,,,,,,,,,,,,,,,,,,,,,,,,,,,,,,,,,,,,,,,,,,,,,,,,,
,,,,left,1,0.234,3,13,61,1,1,2,-200,left,8389,2022-02-24_22h33.58.334,multiplicationStroop,2021.2.3,Win32,59.96282305,,,,,,,,,,,,,,,,,,,,,,,,,,,,,,,,,,,,,,,,,,,,,,,,,,,,,,,,,
,,,,right,1,0.334,3,14,62,10,1,3,200,right,8389,2022-02-24_22h33.58.334,multiplicationStroop,2021.2.3,Win32,59.96282305,,,,,,,,,,,,,,,,,,,,,,,,,,,,,,,,,,,,,,,,,,,,,,,,,,,,,,,,,
,,,,left,1,0.2678,3,15,63,7,1,9,-200,left,8389,2022-02-24_22h33.58.334,multiplicationStroop,2021.2.3,Win32,59.96282305,,,,,,,,,,,,,,,,,,,,,,,,,,,,,,,,,,,,,,,,,,,,,,,,,,,,,,,,,
,,,,,,,,,,,,,,,8389,2022-02-24_22h33.58.334,multiplicationStroop,2021.2.3,Win32,59.96282305,space,211.7446,space,304.2918,right,1,0.8795,0,0,0,19,1,4,9,4 | 9,5,1.4111,1.9756,congruent,right,,,,,,stimulusFile/magnitude.xlsx,,,,,,,,,,,,,,,,,,,,,,,,,,,,,,,
,,,,,,,,,,,,,,,8389,2022-02-24_22h33.58.334,multiplicationStroop,2021.2.3,Win32,59.96282305,,,,,left,1,0.8623,0,1,1,38,1,8,6,8 | 6,2,1.4111,1.9756,incongruent,left,,,,,,stimulusFile/magnitude.xlsx,,,,,,,,,,,,,,,,,,,,,,,,,,,,,,,
,,,,,,,,,,,,,,,8389,2022-02-24_22h33.58.334,multiplicationStroop,2021.2.3,Win32,59.96282305,,,,,right,1,1.2894,0,2,2,42,1,3,8,3 | 8,5,1.9756,1.4111,incongruent,right,,,,,,stimulusFile/magnitude.xlsx,,,,,,,,,,,,,,,,,,,,,,,,,,,,,,,
,,,,,,,,,,,,,,,8389,2022-02-24_22h33.58.334,multiplicationStroop,2021.2.3,Win32,59.96282305,,,,,left,1,0.7497,0,3,3,23,1,9,4,9 | 4,5,1.9756,1.4111,congruent,left,,,,,,stimulusFile/magnitude.xlsx,,,,,,,,,,,,,,,,,,,,,,,,,,,,,,,
,,,,,,,,,,,,,,,8389,2022-02-24_22h33.58.334,multiplicationStroop,2021.2.3,Win32,59.96282305,,,,,left,1,0.9582,0,4,4,71,1,9,4,9 | 4,5,1.6933,1.6933,neutral,left,,,,,,stimulusFile/magnitude.xlsx,,,,,,,,,,,,,,,,,,,,,,,,,,,,,,,
,,,,,,,,,,,,,,,8389,2022-02-24_22h33.58.334,multiplicationStroop,2021.2.3,Win32,59.96282305,,,,,right,1,0.8858,0,5,5,57,1,2,4,2 | 4,2,1.6933,1.6933,neutral,right,,,,,,stimulusFile/magnitude.xlsx,,,,,,,,,,,,,,,,,,,,,,,,,,,,,,,
,,,,,,,,,,,,,,,8389,2022-02-24_22h33.58.334,multiplicationStroop,2021.2.3,Win32,59.96282305,,,,,left,1,1.0678,0,6,6,30,1,7,6,7 | 6,1,1.4111,1.9756,incongruent,left,,,,,,stimulusFile/magnitude.xlsx,,,,,,,,,,,,,,,,,,,,,,,,,,,,,,,
,,,,,,,,,,,,,,,8389,2022-02-24_22h33.58.334,multiplicationStroop,2021.2.3,Win32,59.96282305,,,,,right,1,1.9675,0,7,7,34,1,6,8,6 | 8,2,1.9756,1.4111,incongruent,right,,,,,,stimulusFile/magnitude.xlsx,,,,,,,,,,,,,,,,,,,,,,,,,,,,,,,
,,,,,,,,,,,,,,,8389,2022-02-24_22h33.58.334,multiplicationStroop,2021.2.3,Win32,59.96282305,,,,,right,1,1.0857,0,8,8,3,1,8,9,8 | 9,1,1.4111,1.9756,congruent,right,,,,,,stimulusFile/magnitude.xlsx,,,,,,,,,,,,,,,,,,,,,,,,,,,,,,,
,,,,,,,,,,,,,,,8389,2022-02-24_22h33.58.334,multiplicationStroop,2021.2.3,Win32,59.96282305,,,,,right,1,0.854,0,9,9,50,1,6,7,6 | 7,1,1.6933,1.6933,neutral,right,,,,,,stimulusFile/magnitude.xlsx,,,,,,,,,,,,,,,,,,,,,,,,,,,,,,,
,,,,,,,,,,,,,,,8389,2022-02-24_22h33.58.334,multiplicationStroop,2021.2.3,Win32,59.96282305,,,,,left,1,0.8678,0,10,10,36,1,3,1,3 | 1,2,1.4111,1.9756,incongruent,left,,,,,,stimulusFile/magnitude.xlsx,,,,,,,,,,,,,,,,,,,,,,,,,,,,,,,
,,,,,,,,,,,,,,,8389,2022-02-24_22h33.58.334,multiplicationStroop,2021.2.3,Win32,59.96282305,,,,,right,1,0.5844,0,11,11,24,1,1,2,1 | 2,1,1.9756,1.4111,incongruent,right,,,,,,stimulusFile/magnitude.xlsx,,,,,,,,,,,,,,,,,,,,,,,,,,,,,,,
,,,,,,,,,,,,,,,8389,2022-02-24_22h33.58.334,multiplicationStroop,2021.2.3,Win32,59.96282305,,,,,left,0,1.3174,0,12,12,48,1,1,2,1 | 2,1,1.6933,1.6933,neutral,right,,,,,,stimulusFile/magnitude.xlsx,,,,,,,,,,,,,,,,,,,,,,,,,,,,,,,
,,,,,,,,,,,,,,,8389,2022-02-24_22h33.58.334,multiplicationStroop,2021.2.3,Win32,59.96282305,,,,,right,1,2.818,0,13,13,25,1,3,4,3 | 4,1,1.9756,1.4111,incongruent,right,,,,,,stimulusFile/magnitude.xlsx,,,,,,,,,,,,,,,,,,,,,,,,,,,,,,,
,,,,,,,,,,,,,,,8389,2022-02-24_22h33.58.334,multiplicationStroop,2021.2.3,Win32,59.96282305,,,,,right,1,0.6007,0,14,14,11,1,7,9,7 | 9,2,1.4111,1.9756,congruent,right,,,,,,stimulusFile/magnitude.xlsx,,,,,,,,,,,,,,,,,,,,,,,,,,,,,,,
,,,,,,,,,,,,,,,8389,2022-02-24_22h33.58.334,multiplicationStroop,2021.2.3,Win32,59.96282305,,,,,left,1,1.0013,0,15,15,52,1,2,1,2 | 1,1,1.6933,1.6933,neutral,left,,,,,,stimulusFile/magnitude.xlsx,,,,,,,,,,,,,,,,,,,,,,,,,,,,,,,
,,,,,,,,,,,,,,,8389,2022-02-24_22h33.58.334,multiplicationStroop,2021.2.3,Win32,59.96282305,,,,,left,1,0.751,0,16,16,6,1,7,6,7 | 6,1,1.9756,1.4111,congruent,left,,,,,,stimulusFile/magnitude.xlsx,,,,,,,,,,,,,,,,,,,,,,,,,,,,,,,
,,,,,,,,,,,,,,,8389,2022-02-24_22h33.58.334,multiplicationStroop,2021.2.3,Win32,59.96282305,,,,,right,1,1.3014,0,17,17,0,1,1,2,1 | 2,1,1.4111,1.9756,congruent,right,,,,,,stimulusFile/magnitude.xlsx,,,,,,,,,,,,,,,,,,,,,,,,,,,,,,,
,,,,,,,,,,,,,,,8389,2022-02-24_22h33.58.334,multiplicationStroop,2021.2.3,Win32,59.96282305,,,,,right,1,0.6674,0,18,18,58,1,6,8,6 | 8,2,1.6933,1.6933,neutral,right,,,,,,stimulusFile/magnitude.xlsx,,,,,,,,,,,,,,,,,,,,,,,,,,,,,,,
,,,,,,,,,,,,,,,8389,2022-02-24_22h33.58.334,multiplicationStroop,2021.2.3,Win32,59.96282305,,,,,right,1,0.5173,0,19,19,41,1,2,7,2 | 7,5,1.9756,1.4111,incongruent,right,,,,,,stimulusFile/magnitude.xlsx,,,,,,,,,,,,,,,,,,,,,,,,,,,,,,,
,,,,,,,,,,,,,,,8389,2022-02-24_22h33.58.334,multiplicationStroop,2021.2.3,Win32,59.96282305,,,,,right,1,0.6677,0,20,20,33,1,2,4,2 | 4,2,1.9756,1.4111,incongruent,right,,,,,,stimulusFile/magnitude.xlsx,,,,,,,,,,,,,,,,,,,,,,,,,,,,,,,
,,,,,,,,,,,,,,,8389,2022-02-24_22h33.58.334,multiplicationStroop,2021.2.3,Win32,59.96282305,,,,,left,1,0.589,0,21,21,54,1,7,6,7 | 6,1,1.6933,1.6933,neutral,left,,,,,,stimulusFile/magnitude.xlsx,,,,,,,,,,,,,,,,,,,,,,,,,,,,,,,
,,,,,,,,,,,,,,,8389,2022-02-24_22h33.58.334,multiplicationStroop,2021.2.3,Win32,59.96282305,,,,,left,1,2.1848,0,22,22,63,1,9,7,9 | 7,2,1.6933,1.6933,neutral,left,,,,,,stimulusFile/magnitude.xlsx,,,,,,,,,,,,,,,,,,,,,,,,,,,,,,,
,,,,,,,,,,,,,,,8389,2022-02-24_22h33.58.334,multiplicationStroop,2021.2.3,Win32,59.96282305,,,,,right,1,0.701,0,23,23,65,1,2,7,2 | 7,5,1.6933,1.6933,neutral,right,,,,,,stimulusFile/magnitude.xlsx,,,,,,,,,,,,,,,,,,,,,,,,,,,,,,,
,,,,,,,,,,,,,,,8389,2022-02-24_22h33.58.334,multiplicationStroop,2021.2.3,Win32,59.96282305,,,,,right,1,0.6683,0,24,24,9,1,2,4,2 | 4,2,1.4111,1.9756,congruent,right,,,,,,stimulusFile/magnitude.xlsx,,,,,,,,,,,,,,,,,,,,,,,,,,,,,,,
,,,,,,,,,,,,,,,8389,2022-02-24_22h33.58.334,multiplicationStroop,2021.2.3,Win32,59.96282305,,,,,right,1,0.6402,0,25,25,43,1,4,9,4 | 9,5,1.9756,1.4111,incongruent,right,,,,,,stimulusFile/magnitude.xlsx,,,,,,,,,,,,,,,,,,,,,,,,,,,,,,,
,,,,,,,,,,,,,,,8389,2022-02-24_22h33.58.334,multiplicationStroop,2021.2.3,Win32,59.96282305,,,,,left,1,0.6504,0,26,26,14,1,8,6,8 | 6,2,1.9756,1.4111,congruent,left,,,,,,stimulusFile/magnitude.xlsx,,,,,,,,,,,,,,,,,,,,,,,,,,,,,,,
,,,,,,,,,,,,,,,8389,2022-02-24_22h33.58.334,multiplicationStroop,2021.2.3,Win32,59.96282305,,,,,left,1,0.7678,0,27,27,45,1,7,2,7 | 2,5,1.4111,1.9756,incongruent,left,,,,,,stimulusFile/magnitude.xlsx,,,,,,,,,,,,,,,,,,,,,,,,,,,,,,,
,,,,,,,,,,,,,,,8389,2022-02-24_22h33.58.334,multiplicationStroop,2021.2.3,Win32,59.96282305,,,,,left,1,0.5842,0,28,28,46,1,8,3,8 | 3,5,1.4111,1.9756,incongruent,left,,,,,,stimulusFile/magnitude.xlsx,,,,,,,,,,,,,,,,,,,,,,,,,,,,,,,
,,,,,,,,,,,,,,,8389,2022-02-24_22h33.58.334,multiplicationStroop,2021.2.3,Win32,59.96282305,,,,,left,1,0.6179,0,29,29,21,1,7,2,7 | 2,5,1.9756,1.4111,congruent,left,,,,,,stimulusFile/magnitude.xlsx,,,,,,,,,,,,,,,,,,,,,,,,,,,,,,,
,,,,,,,,,,,,,,,8389,2022-02-24_22h33.58.334,multiplicationStroop,2021.2.3,Win32,59.96282305,,,,,left,1,0.6514,0,30,30,44,1,6,1,6 | 1,5,1.4111,1.9756,incongruent,left,,,,,,stimulusFile/magnitude.xlsx,,,,,,,,,,,,,,,,,,,,,,,,,,,,,,,
,,,,,,,,,,,,,,,8389,2022-02-24_22h33.58.334,multiplicationStroop,2021.2.3,Win32,59.96282305,,,,,left,1,0.7677,0,31,31,31,1,9,8,9 | 8,1,1.4111,1.9756,incongruent,left,,,,,,stimulusFile/magnitude.xlsx,,,,,,,,,,,,,,,,,,,,,,,,,,,,,,,
,,,,,,,,,,,,,,,8389,2022-02-24_22h33.58.334,multiplicationStroop,2021.2.3,Win32,59.96282305,,,,,left,1,0.7674,0,32,32,5,1,4,3,4 | 3,1,1.9756,1.4111,congruent,left,,,,,,stimulusFile/magnitude.xlsx,,,,,,,,,,,,,,,,,,,,,,,,,,,,,,,
,,,,,,,,,,,,,,,8389,2022-02-24_22h33.58.334,multiplicationStroop,2021.2.3,Win32,59.96282305,,,,,right,1,0.635,0,33,33,66,1,3,8,3 | 8,5,1.6933,1.6933,neutral,right,,,,,,stimulusFile/magnitude.xlsx,,,,,,,,,,,,,,,,,,,,,,,,,,,,,,,
,,,,,,,,,,,,,,,8389,2022-02-24_22h33.58.334,multiplicationStroop,2021.2.3,Win32,59.96282305,,,,,right,1,0.5508,0,34,34,17,1,2,7,2 | 7,5,1.4111,1.9756,congruent,right,,,,,,stimulusFile/magnitude.xlsx,,,,,,,,,,,,,,,,,,,,,,,,,,,,,,,
,,,,,,,,,,,,,,,8389,2022-02-24_22h33.58.334,multiplicationStroop,2021.2.3,Win32,59.96282305,,,,,left,1,0.684,0,35,35,7,1,9,8,9 | 8,1,1.9756,1.4111,congruent,left,,,,,,stimulusFile/magnitude.xlsx,,,,,,,,,,,,,,,,,,,,,,,,,,,,,,,
,,,,,,,,,,,,,,,8389,2022-02-24_22h33.58.334,multiplicationStroop,2021.2.3,Win32,59.96282305,,,,,left,1,0.5673,0,36,36,70,1,8,3,8 | 3,5,1.6933,1.6933,neutral,left,,,,,,stimulusFile/magnitude.xlsx,,,,,,,,,,,,,,,,,,,,,,,,,,,,,,,
,,,,,,,,,,,,,,,8389,2022-02-24_22h33.58.334,multiplicationStroop,2021.2.3,Win32,59.96282305,,,,,left,1,0.5507,0,37,37,13,1,4,2,4 | 2,2,1.9756,1.4111,congruent,left,,,,,,stimulusFile/magnitude.xlsx,,,,,,,,,,,,,,,,,,,,,,,,,,,,,,,
,,,,,,,,,,,,,,,8389,2022-02-24_22h33.58.334,multiplicationStroop,2021.2.3,Win32,59.96282305,,,,,right,1,0.5512,0,38,38,2,1,6,7,6 | 7,1,1.4111,1.9756,congruent,right,,,,,,stimulusFile/magnitude.xlsx,,,,,,,,,,,,,,,,,,,,,,,,,,,,,,,
,,,,,,,,,,,,,,,8389,2022-02-24_22h33.58.334,multiplicationStroop,2021.2.3,Win32,59.96282305,,,,,left,1,0.8017,0,39,39,15,1,9,7,9 | 7,2,1.9756,1.4111,congruent,left,,,,,,stimulusFile/magnitude.xlsx,,,,,,,,,,,,,,,,,,,,,,,,,,,,,,,
,,,,,,,,,,,,,,,8389,2022-02-24_22h33.58.334,multiplicationStroop,2021.2.3,Win32,59.96282305,,,,,left,1,0.4179,0,40,40,68,1,6,1,6 | 1,5,1.6933,1.6933,neutral,left,,,,,,stimulusFile/magnitude.xlsx,,,,,,,,,,,,,,,,,,,,,,,,,,,,,,,
,,,,,,,,,,,,,,,8389,2022-02-24_22h33.58.334,multiplicationStroop,2021.2.3,Win32,59.96282305,,,,,right,1,0.4678,0,41,41,32,1,1,3,1 | 3,2,1.9756,1.4111,incongruent,right,,,,,,stimulusFile/magnitude.xlsx,,,,,,,,,,,,,,,,,,,,,,,,,,,,,,,
,,,,,,,,,,,,,,,8389,2022-02-24_22h33.58.334,multiplicationStroop,2021.2.3,Win32,59.96282305,,,,,left,1,0.384,0,42,42,22,1,8,3,8 | 3,5,1.9756,1.4111,congruent,left,,,,,,stimulusFile/magnitude.xlsx,,,,,,,,,,,,,,,,,,,,,,,,,,,,,,,
,,,,,,,,,,,,,,,8389,2022-02-24_22h33.58.334,multiplicationStroop,2021.2.3,Win32,59.96282305,,,,,right,1,0.4385,0,43,43,64,1,1,6,1 | 6,5,1.6933,1.6933,neutral,right,,,,,,stimulusFile/magnitude.xlsx,,,,,,,,,,,,,,,,,,,,,,,,,,,,,,,
,,,,,,,,,,,,,,,8389,2022-02-24_22h33.58.334,multiplicationStroop,2021.2.3,Win32,59.96282305,,,,,right,1,0.4544,0,44,44,16,1,1,6,1 | 6,5,1.4111,1.9756,congruent,right,,,,,,stimulusFile/magnitude.xlsx,,,,,,,,,,,,,,,,,,,,,,,,,,,,,,,
,,,,,,,,,,,,,,,8389,2022-02-24_22h33.58.334,multiplicationStroop,2021.2.3,Win32,59.96282305,,,,,right,1,0.4345,0,45,45,18,1,3,8,3 | 8,5,1.4111,1.9756,congruent,right,,,,,,stimulusFile/magnitude.xlsx,,,,,,,,,,,,,,,,,,,,,,,,,,,,,,,
,,,,,,,,,,,,,,,8389,2022-02-24_22h33.58.334,multiplicationStroop,2021.2.3,Win32,59.96282305,,,,,right,1,1.0677,0,46,46,59,1,7,9,7 | 9,2,1.6933,1.6933,neutral,right,,,,,,stimulusFile/magnitude.xlsx,,,,,,,,,,,,,,,,,,,,,,,,,,,,,,,
,,,,,,,,,,,,,,,8389,2022-02-24_22h33.58.334,multiplicationStroop,2021.2.3,Win32,59.96282305,,,,,right,1,0.5662,0,47,47,10,1,6,8,6 | 8,2,1.4111,1.9756,congruent,right,,,,,,stimulusFile/magnitude.xlsx,,,,,,,,,,,,,,,,,,,,,,,,,,,,,,,
,,,,,,,,,,,,,,,8389,2022-02-24_22h33.58.334,multiplicationStroop,2021.2.3,Win32,59.96282305,,,,,left,1,0.4174,0,48,48,53,1,4,3,4 | 3,1,1.6933,1.6933,neutral,left,,,,,,stimulusFile/magnitude.xlsx,,,,,,,,,,,,,,,,,,,,,,,,,,,,,,,
,,,,,,,,,,,,,,,8389,2022-02-24_22h33.58.334,multiplicationStroop,2021.2.3,Win32,59.96282305,,,,,left,1,0.4179,0,49,49,20,1,6,1,6 | 1,5,1.9756,1.4111,congruent,left,,,,,,stimulusFile/magnitude.xlsx,,,,,,,,,,,,,,,,,,,,,,,,,,,,,,,
,,,,,,,,,,,,,,,8389,2022-02-24_22h33.58.334,multiplicationStroop,2021.2.3,Win32,59.96282305,,,,,left,1,0.6508,0,50,50,28,1,2,1,2 | 1,1,1.4111,1.9756,incongruent,left,,,,,,stimulusFile/magnitude.xlsx,,,,,,,,,,,,,,,,,,,,,,,,,,,,,,,
,,,,,,,,,,,,,,,8389,2022-02-24_22h33.58.334,multiplicationStroop,2021.2.3,Win32,59.96282305,,,,,left,1,0.4681,0,51,51,37,1,4,2,4 | 2,2,1.4111,1.9756,incongruent,left,,,,,,stimulusFile/magnitude.xlsx,,,,,,,,,,,,,,,,,,,,,,,,,,,,,,,
,,,,,,,,,,,,,,,8389,2022-02-24_22h33.58.334,multiplicationStroop,2021.2.3,Win32,59.96282305,,,,,left,1,0.5176,0,52,52,29,1,4,3,4 | 3,1,1.4111,1.9756,incongruent,left,,,,,,stimulusFile/magnitude.xlsx,,,,,,,,,,,,,,,,,,,,,,,,,,,,,,,
,,,,,,,,,,,,,,,8389,2022-02-24_22h33.58.334,multiplicationStroop,2021.2.3,Win32,59.96282305,,,,,left,1,0.4007,0,53,53,4,1,2,1,2 | 1,1,1.9756,1.4111,congruent,left,,,,,,stimulusFile/magnitude.xlsx,,,,,,,,,,,,,,,,,,,,,,,,,,,,,,,
,,,,,,,,,,,,,,,8389,2022-02-24_22h33.58.334,multiplicationStroop,2021.2.3,Win32,59.96282305,,,,,left,0,0.3674,0,54,54,27,1,8,9,8 | 9,1,1.9756,1.4111,incongruent,right,,,,,,stimulusFile/magnitude.xlsx,,,,,,,,,,,,,,,,,,,,,,,,,,,,,,,
,,,,,,,,,,,,,,,8389,2022-02-24_22h33.58.334,multiplicationStroop,2021.2.3,Win32,59.96282305,,,,,right,1,0.7346,0,55,55,40,1,1,6,1 | 6,5,1.9756,1.4111,incongruent,right,,,,,,stimulusFile/magnitude.xlsx,,,,,,,,,,,,,,,,,,,,,,,,,,,,,,,
,,,,,,,,,,,,,,,8389,2022-02-24_22h33.58.334,multiplicationStroop,2021.2.3,Win32,59.96282305,,,,,left,1,0.6345,0,56,56,39,1,9,7,9 | 7,2,1.4111,1.9756,incongruent,left,,,,,,stimulusFile/magnitude.xlsx,,,,,,,,,,,,,,,,,,,,,,,,,,,,,,,
,,,,,,,,,,,,,,,8389,2022-02-24_22h33.58.334,multiplicationStroop,2021.2.3,Win32,59.96282305,,,,,right,1,0.5843,0,57,57,67,1,4,9,4 | 9,5,1.6933,1.6933,neutral,right,,,,,,stimulusFile/magnitude.xlsx,,,,,,,,,,,,,,,,,,,,,,,,,,,,,,,
,,,,,,,,,,,,,,,8389,2022-02-24_22h33.58.334,multiplicationStroop,2021.2.3,Win32,59.96282305,,,,,right,1,0.7032,0,58,58,49,1,3,4,3 | 4,1,1.6933,1.6933,neutral,right,,,,,,stimulusFile/magnitude.xlsx,,,,,,,,,,,,,,,,,,,,,,,,,,,,,,,
,,,,,,,,,,,,,,,8389,2022-02-24_22h33.58.334,multiplicationStroop,2021.2.3,Win32,59.96282305,,,,,right,1,0.4562,0,59,59,56,1,1,3,1 | 3,2,1.6933,1.6933,neutral,right,,,,,,stimulusFile/magnitude.xlsx,,,,,,,,,,,,,,,,,,,,,,,,,,,,,,,
,,,,,,,,,,,,,,,8389,2022-02-24_22h33.58.334,multiplicationStroop,2021.2.3,Win32,59.96282305,,,,,left,1,0.5539,0,60,60,61,1,4,2,4 | 2,2,1.6933,1.6933,neutral,left,,,,,,stimulusFile/magnitude.xlsx,,,,,,,,,,,,,,,,,,,,,,,,,,,,,,,
,,,,,,,,,,,,,,,8389,2022-02-24_22h33.58.334,multiplicationStroop,2021.2.3,Win32,59.96282305,,,,,right,1,0.601,0,61,61,26,1,6,7,6 | 7,1,1.9756,1.4111,incongruent,right,,,,,,stimulusFile/magnitude.xlsx,,,,,,,,,,,,,,,,,,,,,,,,,,,,,,,
,,,,,,,,,,,,,,,8389,2022-02-24_22h33.58.334,multiplicationStroop,2021.2.3,Win32,59.96282305,,,,,right,1,0.7665,0,62,62,51,1,8,9,8 | 9,1,1.6933,1.6933,neutral,right,,,,,,stimulusFile/magnitude.xlsx,,,,,,,,,,,,,,,,,,,,,,,,,,,,,,,
,,,,,,,,,,,,,,,8389,2022-02-24_22h33.58.334,multiplicationStroop,2021.2.3,Win32,59.96282305,,,,,right,1,0.6375,0,63,63,35,1,7,9,7 | 9,2,1.9756,1.4111,incongruent,right,,,,,,stimulusFile/magnitude.xlsx,,,,,,,,,,,,,,,,,,,,,,,,,,,,,,,
,,,,,,,,,,,,,,,8389,2022-02-24_22h33.58.334,multiplicationStroop,2021.2.3,Win32,59.96282305,,,,,left,1,0.8176,0,64,64,55,1,9,8,9 | 8,1,1.6933,1.6933,neutral,left,,,,,,stimulusFile/magnitude.xlsx,,,,,,,,,,,,,,,,,,,,,,,,,,,,,,,
,,,,,,,,,,,,,,,8389,2022-02-24_22h33.58.334,multiplicationStroop,2021.2.3,Win32,59.96282305,,,,,left,1,0.4557,0,65,65,47,1,9,4,9 | 4,5,1.4111,1.9756,incongruent,left,,,,,,stimulusFile/magnitude.xlsx,,,,,,,,,,,,,,,,,,,,,,,,,,,,,,,
,,,,,,,,,,,,,,,8389,2022-02-24_22h33.58.334,multiplicationStroop,2021.2.3,Win32,59.96282305,,,,,left,1,0.4173,0,66,66,12,1,3,1,3 | 1,2,1.9756,1.4111,congruent,left,,,,,,stimulusFile/magnitude.xlsx,,,,,,,,,,,,,,,,,,,,,,,,,,,,,,,
,,,,,,,,,,,,,,,8389,2022-02-24_22h33.58.334,multiplicationStroop,2021.2.3,Win32,59.96282305,,,,,left,1,0.3671,0,67,67,60,1,3,1,3 | 1,2,1.6933,1.6933,neutral,left,,,,,,stimulusFile/magnitude.xlsx,,,,,,,,,,,,,,,,,,,,,,,,,,,,,,,
,,,,,,,,,,,,,,,8389,2022-02-24_22h33.58.334,multiplicationStroop,2021.2.3,Win32,59.96282305,,,,,left,1,0.8199,0,68,68,62,1,8,6,8 | 6,2,1.6933,1.6933,neutral,left,,,,,,stimulusFile/magnitude.xlsx,,,,,,,,,,,,,,,,,,,,,,,,,,,,,,,
,,,,,,,,,,,,,,,8389,2022-02-24_22h33.58.334,multiplicationStroop,2021.2.3,Win32,59.96282305,,,,,left,1,0.4016,0,69,69,69,1,7,2,7 | 2,5,1.6933,1.6933,neutral,left,,,,,,stimulusFile/magnitude.xlsx,,,,,,,,,,,,,,,,,,,,,,,,,,,,,,,
,,,,,,,,,,,,,,,8389,2022-02-24_22h33.58.334,multiplicationStroop,2021.2.3,Win32,59.96282305,,,,,right,1,0.6507,0,70,70,1,1,3,4,3 | 4,1,1.4111,1.9756,congruent,right,,,,,,stimulusFile/magnitude.xlsx,,,,,,,,,,,,,,,,,,,,,,,,,,,,,,,
,,,,,,,,,,,,,,,8389,2022-02-24_22h33.58.334,multiplicationStroop,2021.2.3,Win32,59.96282305,,,,,right,1,0.4008,0,71,71,8,1,1,3,1 | 3,2,1.4111,1.9756,congruent,right,,,,,,stimulusFile/magnitude.xlsx,,,,,,,,,,,,,,,,,,,,,,,,,,,,,,,
,,,,,,,,,,,,,,,8389,2022-02-24_22h33.58.334,multiplicationStroop,2021.2.3,Win32,59.96282305,,,,,,,,,,,,,,,,,,,,,0,0,0,0,1,stimulusFile/magnitude.xlsx,NUMERICALLY larger (larger coefficient).,images/numericallyLarger.png,,,,,,,,,,,,,,,,,,,,,,,,,,,,,
,,,,,,,,,,,,,,,8389,2022-02-24_22h33.58.334,multiplicationStroop,2021.2.3,Win32,59.96282305,space,242.7135,space,258.3821,left,1,1.7692,0,0,0,41,1,2,7,2 | 7,5,1.9756,1.4111,incongruent,left,,,,,,stimulusFile/physical.xlsx,,,,,,,,,,,,,,,,,,,,,,,,,,,,,,,
,,,,,,,,,,,,,,,8389,2022-02-24_22h33.58.334,multiplicationStroop,2021.2.3,Win32,59.96282305,,,,,left,1,0.4522,0,1,1,20,1,6,1,6 | 1,5,1.9756,1.4111,congruent,left,,,,,,stimulusFile/physical.xlsx,,,,,,,,,,,,,,,,,,,,,,,,,,,,,,,
,,,,,,,,,,,,,,,8389,2022-02-24_22h33.58.334,multiplicationStroop,2021.2.3,Win32,59.96282305,,,,,right,1,0.4506,0,2,2,39,1,9,7,9 | 7,2,1.4111,1.9756,incongruent,right,,,,,,stimulusFile/physical.xlsx,,,,,,,,,,,,,,,,,,,,,,,,,,,,,,,
,,,,,,,,,,,,,,,8389,2022-02-24_22h33.58.334,multiplicationStroop,2021.2.3,Win32,59.96282305,,,,,right,1,0.351,0,3,3,67,1,4,4,4 | 4,0,1.4111,1.9756,neutral,right,,,,,,stimulusFile/physical.xlsx,,,,,,,,,,,,,,,,,,,,,,,,,,,,,,,
,,,,,,,,,,,,,,,8389,2022-02-24_22h33.58.334,multiplicationStroop,2021.2.3,Win32,59.96282305,,,,,left,1,0.3718,0,4,4,25,1,3,4,3 | 4,1,1.9756,1.4111,incongruent,left,,,,,,stimulusFile/physical.xlsx,,,,,,,,,,,,,,,,,,,,,,,,,,,,,,,
,,,,,,,,,,,,,,,8389,2022-02-24_22h33.58.334,multiplicationStroop,2021.2.3,Win32,59.96282305,,,,,right,1,0.4891,0,5,5,31,1,9,8,9 | 8,1,1.4111,1.9756,incongruent,right,,,,,,stimulusFile/physical.xlsx,,,,,,,,,,,,,,,,,,,,,,,,,,,,,,,
,,,,,,,,,,,,,,,8389,2022-02-24_22h33.58.334,multiplicationStroop,2021.2.3,Win32,59.96282305,,,,,left,0,0.505,0,6,6,36,1,3,1,3 | 1,2,1.4111,1.9756,incongruent,right,,,,,,stimulusFile/physical.xlsx,,,,,,,,,,,,,,,,,,,,,,,,,,,,,,,
,,,,,,,,,,,,,,,8389,2022-02-24_22h33.58.334,multiplicationStroop,2021.2.3,Win32,59.96282305,,,,,left,1,0.5008,0,7,7,13,1,4,2,4 | 2,2,1.9756,1.4111,congruent,left,,,,,,stimulusFile/physical.xlsx,,,,,,,,,,,,,,,,,,,,,,,,,,,,,,,
,,,,,,,,,,,,,,,8389,2022-02-24_22h33.58.334,multiplicationStroop,2021.2.3,Win32,59.96282305,,,,,left,1,0.4182,0,8,8,23,1,9,4,9 | 4,5,1.9756,1.4111,congruent,left,,,,,,stimulusFile/physical.xlsx,,,,,,,,,,,,,,,,,,,,,,,,,,,,,,,
,,,,,,,,,,,,,,,8389,2022-02-24_22h33.58.334,multiplicationStroop,2021.2.3,Win32,59.96282305,,,,,left,1,0.5839,0,9,9,68,1,6,6,6 | 6,0,1.9756,1.4111,neutral,left,,,,,,stimulusFile/physical.xlsx,,,,,,,,,,,,,,,,,,,,,,,,,,,,,,,
,,,,,,,,,,,,,,,8389,2022-02-24_22h33.58.334,multiplicationStroop,2021.2.3,Win32,59.96282305,,,,,right,1,0.4675,0,10,10,56,1,1,1,1 | 1,0,1.4111,1.9756,neutral,right,,,,,,stimulusFile/physical.xlsx,,,,,,,,,,,,,,,,,,,,,,,,,,,,,,,
,,,,,,,,,,,,,,,8389,2022-02-24_22h33.58.334,multiplicationStroop,2021.2.3,Win32,59.96282305,,,,,left,1,0.834,0,11,11,40,1,1,6,1 | 6,5,1.9756,1.4111,incongruent,left,,,,,,stimulusFile/physical.xlsx,,,,,,,,,,,,,,,,,,,,,,,,,,,,,,,
,,,,,,,,,,,,,,,8389,2022-02-24_22h33.58.334,multiplicationStroop,2021.2.3,Win32,59.96282305,,,,,left,0,0.539,0,12,12,30,1,7,6,7 | 6,1,1.4111,1.9756,incongruent,right,,,,,,stimulusFile/physical.xlsx,,,,,,,,,,,,,,,,,,,,,,,,,,,,,,,
,,,,,,,,,,,,,,,8389,2022-02-24_22h33.58.334,multiplicationStroop,2021.2.3,Win32,59.96282305,,,,,left,1,0.4844,0,13,13,70,1,8,8,8 | 8,0,1.9756,1.4111,neutral,left,,,,,,stimulusFile/physical.xlsx,,,,,,,,,,,,,,,,,,,,,,,,,,,,,,,
,,,,,,,,,,,,,,,8389,2022-02-24_22h33.58.334,multiplicationStroop,2021.2.3,Win32,59.96282305,,,,,left,0,0.5173,0,14,14,65,1,2,2,2 | 2,0,1.4111,1.9756,neutral,right,,,,,,stimulusFile/physical.xlsx,,,,,,,,,,,,,,,,,,,,,,,,,,,,,,,
,,,,,,,,,,,,,,,8389,2022-02-24_22h33.58.334,multiplicationStroop,2021.2.3,Win32,59.96282305,,,,,right,0,4.0506,0,15,15,71,1,9,9,9 | 9,0,1.4111,1.9756,neutral,left,,,,,,stimulusFile/physical.xlsx,,,,,,,,,,,,,,,,,,,,,,,,,,,,,,,
,,,,,,,,,,,,,,,8389,2022-02-24_22h33.58.334,multiplicationStroop,2021.2.3,Win32,59.96282305,,,,,left,1,0.5843,0,16,16,14,1,8,6,8 | 6,2,1.9756,1.4111,congruent,left,,,,,,stimulusFile/physical.xlsx,,,,,,,,,,,,,,,,,,,,,,,,,,,,,,,
,,,,,,,,,,,,,,,8389,2022-02-24_22h33.58.334,multiplicationStroop,2021.2.3,Win32,59.96282305,,,,,left,1,0.6224,0,17,17,34,1,6,8,6 | 8,2,1.9756,1.4111,incongruent,left,,,,,,stimulusFile/physical.xlsx,,,,,,,,,,,,,,,,,,,,,,,,,,,,,,,
,,,,,,,,,,,,,,,8389,2022-02-24_22h33.58.334,multiplicationStroop,2021.2.3,Win32,59.96282305,,,,,right,1,0.6038,0,18,18,57,1,2,2,2 | 2,0,1.4111,1.9756,neutral,right,,,,,,stimulusFile/physical.xlsx,,,,,,,,,,,,,,,,,,,,,,,,,,,,,,,
,,,,,,,,,,,,,,,8389,2022-02-24_22h33.58.334,multiplicationStroop,2021.2.3,Win32,59.96282305,,,,,left,1,0.3532,0,19,19,22,1,8,3,8 | 3,5,1.9756,1.4111,congruent,left,,,,,,stimulusFile/physical.xlsx,,,,,,,,,,,,,,,,,,,,,,,,,,,,,,,
,,,,,,,,,,,,,,,8389,2022-02-24_22h33.58.334,multiplicationStroop,2021.2.3,Win32,59.96282305,,,,,left,0,0.4173,0,20,20,64,1,1,1,1 | 1,0,1.9756,1.4111,neutral,right,,,,,,stimulusFile/physical.xlsx,,,,,,,,,,,,,,,,,,,,,,,,,,,,,,,
,,,,,,,,,,,,,,,8389,2022-02-24_22h33.58.334,multiplicationStroop,2021.2.3,Win32,59.96282305,,,,,right,1,0.4178,0,21,21,10,1,6,8,6 | 8,2,1.4111,1.9756,congruent,right,,,,,,stimulusFile/physical.xlsx,,,,,,,,,,,,,,,,,,,,,,,,,,,,,,,
,,,,,,,,,,,,,,,8389,2022-02-24_22h33.58.334,multiplicationStroop,2021.2.3,Win32,59.96282305,,,,,left,1,0.2843,0,22,22,69,1,7,7,7 | 7,0,1.4111,1.9756,neutral,left,,,,,,stimulusFile/physical.xlsx,,,,,,,,,,,,,,,,,,,,,,,,,,,,,,,
,,,,,,,,,,,,,,,8389,2022-02-24_22h33.58.334,multiplicationStroop,2021.2.3,Win32,59.96282305,,,,,right,1,0.6173,0,23,23,45,1,7,2,7 | 2,5,1.4111,1.9756,incongruent,right,,,,,,stimulusFile/physical.xlsx,,,,,,,,,,,,,,,,,,,,,,,,,,,,,,,
,,,,,,,,,,,,,,,8389,2022-02-24_22h33.58.334,multiplicationStroop,2021.2.3,Win32,59.96282305,,,,,left,1,1.0511,0,24,24,6,1,7,6,7 | 6,1,1.9756,1.4111,congruent,left,,,,,,stimulusFile/physical.xlsx,,,,,,,,,,,,,,,,,,,,,,,,,,,,,,,
,,,,,,,,,,,,,,,8389,2022-02-24_22h33.58.334,multiplicationStroop,2021.2.3,Win32,59.96282305,,,,,right,1,0.6011,0,25,25,28,1,2,1,2 | 1,1,1.4111,1.9756,incongruent,right,,,,,,stimulusFile/physical.xlsx,,,,,,,,,,,,,,,,,,,,,,,,,,,,,,,
,,,,,,,,,,,,,,,8389,2022-02-24_22h33.58.334,multiplicationStroop,2021.2.3,Win32,59.96282305,,,,,right,1,0.518,0,26,26,37,1,4,2,4 | 2,2,1.4111,1.9756,incongruent,right,,,,,,stimulusFile/physical.xlsx,,,,,,,,,,,,,,,,,,,,,,,,,,,,,,,
,,,,,,,,,,,,,,,8389,2022-02-24_22h33.58.334,multiplicationStroop,2021.2.3,Win32,59.96282305,,,,,left,1,0.5842,0,27,27,15,1,9,7,9 | 7,2,1.9756,1.4111,congruent,left,,,,,,stimulusFile/physical.xlsx,,,,,,,,,,,,,,,,,,,,,,,,,,,,,,,
,,,,,,,,,,,,,,,8389,2022-02-24_22h33.58.334,multiplicationStroop,2021.2.3,Win32,59.96282305,,,,,left,1,0.535,0,28,28,5,1,4,3,4 | 3,1,1.9756,1.4111,congruent,left,,,,,,stimulusFile/physical.xlsx,,,,,,,,,,,,,,,,,,,,,,,,,,,,,,,
,,,,,,,,,,,,,,,8389,2022-02-24_22h33.58.334,multiplicationStroop,2021.2.3,Win32,59.96282305,,,,,left,1,0.4511,0,29,29,51,1,8,8,8 | 8,0,1.9756,1.4111,neutral,left,,,,,,stimulusFile/physical.xlsx,,,,,,,,,,,,,,,,,,,,,,,,,,,,,,,
,,,,,,,,,,,,,,,8389,2022-02-24_22h33.58.334,multiplicationStroop,2021.2.3,Win32,59.96282305,,,,,right,1,0.4013,0,30,30,2,1,6,7,6 | 7,1,1.4111,1.9756,congruent,right,,,,,,stimulusFile/physical.xlsx,,,,,,,,,,,,,,,,,,,,,,,,,,,,,,,
,,,,,,,,,,,,,,,8389,2022-02-24_22h33.58.334,multiplicationStroop,2021.2.3,Win32,59.96282305,,,,,right,1,0.3842,0,31,31,47,1,9,4,9 | 4,5,1.4111,1.9756,incongruent,right,,,,,,stimulusFile/physical.xlsx,,,,,,,,,,,,,,,,,,,,,,,,,,,,,,,
,,,,,,,,,,,,,,,8389,2022-02-24_22h33.58.334,multiplicationStroop,2021.2.3,Win32,59.96282305,,,,,left,1,0.3871,0,32,32,35,1,7,9,7 | 9,2,1.9756,1.4111,incongruent,left,,,,,,stimulusFile/physical.xlsx,,,,,,,,,,,,,,,,,,,,,,,,,,,,,,,
,,,,,,,,,,,,,,,8389,2022-02-24_22h33.58.334,multiplicationStroop,2021.2.3,Win32,59.96282305,,,,,left,1,0.3357,0,33,33,27,1,8,9,8 | 9,1,1.9756,1.4111,incongruent,left,,,,,,stimulusFile/physical.xlsx,,,,,,,,,,,,,,,,,,,,,,,,,,,,,,,
,,,,,,,,,,,,,,,8389,2022-02-24_22h33.58.334,multiplicationStroop,2021.2.3,Win32,59.96282305,,,,,left,1,0.3841,0,34,34,55,1,9,9,9 | 9,0,1.9756,1.4111,neutral,left,,,,,,stimulusFile/physical.xlsx,,,,,,,,,,,,,,,,,,,,,,,,,,,,,,,
,,,,,,,,,,,,,,,8389,2022-02-24_22h33.58.334,multiplicationStroop,2021.2.3,Win32,59.96282305,,,,,right,0,0.4677,0,35,35,43,1,4,9,4 | 9,5,1.9756,1.4111,incongruent,left,,,,,,stimulusFile/physical.xlsx,,,,,,,,,,,,,,,,,,,,,,,,,,,,,,,
,,,,,,,,,,,,,,,8389,2022-02-24_22h33.58.334,multiplicationStroop,2021.2.3,Win32,59.96282305,,,,,left,1,0.7865,0,36,36,52,1,2,2,2 | 2,0,1.9756,1.4111,neutral,left,,,,,,stimulusFile/physical.xlsx,,,,,,,,,,,,,,,,,,,,,,,,,,,,,,,
,,,,,,,,,,,,,,,8389,2022-02-24_22h33.58.334,multiplicationStroop,2021.2.3,Win32,59.96282305,,,,,right,1,0.4355,0,37,37,16,1,1,6,1 | 6,5,1.4111,1.9756,congruent,right,,,,,,stimulusFile/physical.xlsx,,,,,,,,,,,,,,,,,,,,,,,,,,,,,,,
,,,,,,,,,,,,,,,8389,2022-02-24_22h33.58.334,multiplicationStroop,2021.2.3,Win32,59.96282305,,,,,right,1,0.586,0,38,38,19,1,4,9,4 | 9,5,1.4111,1.9756,congruent,right,,,,,,stimulusFile/physical.xlsx,,,,,,,,,,,,,,,,,,,,,,,,,,,,,,,
,,,,,,,,,,,,,,,8389,2022-02-24_22h33.58.334,multiplicationStroop,2021.2.3,Win32,59.96282305,,,,,left,1,0.5181,0,39,39,33,1,2,4,2 | 4,2,1.9756,1.4111,incongruent,left,,,,,,stimulusFile/physical.xlsx,,,,,,,,,,,,,,,,,,,,,,,,,,,,,,,
,,,,,,,,,,,,,,,8389,2022-02-24_22h33.58.334,multiplicationStroop,2021.2.3,Win32,59.96282305,,,,,left,1,0.3676,0,40,40,7,1,9,8,9 | 8,1,1.9756,1.4111,congruent,left,,,,,,stimulusFile/physical.xlsx,,,,,,,,,,,,,,,,,,,,,,,,,,,,,,,
,,,,,,,,,,,,,,,8389,2022-02-24_22h33.58.334,multiplicationStroop,2021.2.3,Win32,59.96282305,,,,,left,1,0.4055,0,41,41,12,1,3,1,3 | 1,2,1.9756,1.4111,congruent,left,,,,,,stimulusFile/physical.xlsx,,,,,,,,,,,,,,,,,,,,,,,,,,,,,,,
,,,,,,,,,,,,,,,8389,2022-02-24_22h33.58.334,multiplicationStroop,2021.2.3,Win32,59.96282305,,,,,left,1,0.9851,0,42,42,32,1,1,3,1 | 3,2,1.9756,1.4111,incongruent,left,,,,,,stimulusFile/physical.xlsx,,,,,,,,,,,,,,,,,,,,,,,,,,,,,,,
,,,,,,,,,,,,,,,8389,2022-02-24_22h33.58.334,multiplicationStroop,2021.2.3,Win32,59.96282305,,,,,left,1,0.4843,0,43,43,26,1,6,7,6 | 7,1,1.9756,1.4111,incongruent,left,,,,,,stimulusFile/physical.xlsx,,,,,,,,,,,,,,,,,,,,,,,,,,,,,,,
,,,,,,,,,,,,,,,8389,2022-02-24_22h33.58.334,multiplicationStroop,2021.2.3,Win32,59.96282305,,,,,right,1,0.5182,0,44,44,0,1,1,2,1 | 2,1,1.4111,1.9756,congruent,right,,,,,,stimulusFile/physical.xlsx,,,,,,,,,,,,,,,,,,,,,,,,,,,,,,,
,,,,,,,,,,,,,,,8389,2022-02-24_22h33.58.334,multiplicationStroop,2021.2.3,Win32,59.96282305,,,,,right,1,0.4508,0,45,45,38,1,8,6,8 | 6,2,1.4111,1.9756,incongruent,right,,,,,,stimulusFile/physical.xlsx,,,,,,,,,,,,,,,,,,,,,,,,,,,,,,,
,,,,,,,,,,,,,,,8389,2022-02-24_22h33.58.334,multiplicationStroop,2021.2.3,Win32,59.96282305,,,,,right,1,0.4343,0,46,46,29,1,4,3,4 | 3,1,1.4111,1.9756,incongruent,right,,,,,,stimulusFile/physical.xlsx,,,,,,,,,,,,,,,,,,,,,,,,,,,,,,,
,,,,,,,,,,,,,,,8389,2022-02-24_22h33.58.334,multiplicationStroop,2021.2.3,Win32,59.96282305,,,,,right,1,0.3845,0,47,47,11,1,7,9,7 | 9,2,1.4111,1.9756,congruent,right,,,,,,stimulusFile/physical.xlsx,,,,,,,,,,,,,,,,,,,,,,,,,,,,,,,
,,,,,,,,,,,,,,,8389,2022-02-24_22h33.58.334,multiplicationStroop,2021.2.3,Win32,59.96282305,,,,,right,1,0.3679,0,48,48,46,1,8,3,8 | 3,5,1.4111,1.9756,incongruent,right,,,,,,stimulusFile/physical.xlsx,,,,,,,,,,,,,,,,,,,,,,,,,,,,,,,
,,,,,,,,,,,,,,,8389,2022-02-24_22h33.58.334,multiplicationStroop,2021.2.3,Win32,59.96282305,,,,,right,0,0.2903,0,49,49,42,1,3,8,3 | 8,5,1.9756,1.4111,incongruent,left,,,,,,stimulusFile/physical.xlsx,,,,,,,,,,,,,,,,,,,,,,,,,,,,,,,
,,,,,,,,,,,,,,,8389,2022-02-24_22h33.58.334,multiplicationStroop,2021.2.3,Win32,59.96282305,,,,,left,1,0.3839,0,50,50,53,1,4,4,4 | 4,0,1.9756,1.4111,neutral,left,,,,,,stimulusFile/physical.xlsx,,,,,,,,,,,,,,,,,,,,,,,,,,,,,,,
,,,,,,,,,,,,,,,8389,2022-02-24_22h33.58.334,multiplicationStroop,2021.2.3,Win32,59.96282305,,,,,right,1,0.4839,0,51,51,59,1,7,7,7 | 7,0,1.4111,1.9756,neutral,right,,,,,,stimulusFile/physical.xlsx,,,,,,,,,,,,,,,,,,,,,,,,,,,,,,,
,,,,,,,,,,,,,,,8389,2022-02-24_22h33.58.334,multiplicationStroop,2021.2.3,Win32,59.96282305,,,,,left,1,0.3844,0,52,52,54,1,7,7,7 | 7,0,1.9756,1.4111,neutral,left,,,,,,stimulusFile/physical.xlsx,,,,,,,,,,,,,,,,,,,,,,,,,,,,,,,
,,,,,,,,,,,,,,,8389,2022-02-24_22h33.58.334,multiplicationStroop,2021.2.3,Win32,59.96282305,,,,,right,1,0.4036,0,53,53,61,1,4,4,4 | 4,0,1.4111,1.9756,neutral,right,,,,,,stimulusFile/physical.xlsx,,,,,,,,,,,,,,,,,,,,,,,,,,,,,,,
,,,,,,,,,,,,,,,8389,2022-02-24_22h33.58.334,multiplicationStroop,2021.2.3,Win32,59.96282305,,,,,left,1,0.4055,0,54,54,48,1,1,1,1 | 1,0,1.9756,1.4111,neutral,left,,,,,,stimulusFile/physical.xlsx,,,,,,,,,,,,,,,,,,,,,,,,,,,,,,,
,,,,,,,,,,,,,,,8389,2022-02-24_22h33.58.334,multiplicationStroop,2021.2.3,Win32,59.96282305,,,,,left,0,0.386,0,55,55,66,1,3,3,3 | 3,0,1.9756,1.4111,neutral,right,,,,,,stimulusFile/physical.xlsx,,,,,,,,,,,,,,,,,,,,,,,,,,,,,,,
,,,,,,,,,,,,,,,8389,2022-02-24_22h33.58.334,multiplicationStroop,2021.2.3,Win32,59.96282305,,,,,left,1,0.5531,0,56,56,50,1,6,6,6 | 6,0,1.9756,1.4111,neutral,left,,,,,,stimulusFile/physical.xlsx,,,,,,,,,,,,,,,,,,,,,,,,,,,,,,,
,,,,,,,,,,,,,,,8389,2022-02-24_22h33.58.334,multiplicationStroop,2021.2.3,Win32,59.96282305,,,,,left,0,1.0514,0,57,57,3,1,8,9,8 | 9,1,1.4111,1.9756,congruent,right,,,,,,stimulusFile/physical.xlsx,,,,,,,,,,,,,,,,,,,,,,,,,,,,,,,
,,,,,,,,,,,,,,,8389,2022-02-24_22h33.58.334,multiplicationStroop,2021.2.3,Win32,59.96282305,,,,,left,1,0.533,0,58,58,49,1,3,3,3 | 3,0,1.9756,1.4111,neutral,left,,,,,,stimulusFile/physical.xlsx,,,,,,,,,,,,,,,,,,,,,,,,,,,,,,,
,,,,,,,,,,,,,,,8389,2022-02-24_22h33.58.334,multiplicationStroop,2021.2.3,Win32,59.96282305,,,,,left,1,0.4008,0,59,59,4,1,2,1,2 | 1,1,1.9756,1.4111,congruent,left,,,,,,stimulusFile/physical.xlsx,,,,,,,,,,,,,,,,,,,,,,,,,,,,,,,
,,,,,,,,,,,,,,,8389,2022-02-24_22h33.58.334,multiplicationStroop,2021.2.3,Win32,59.96282305,,,,,left,0,0.2678,0,60,60,18,1,3,8,3 | 8,5,1.4111,1.9756,congruent,right,,,,,,stimulusFile/physical.xlsx,,,,,,,,,,,,,,,,,,,,,,,,,,,,,,,
,,,,,,,,,,,,,,,8389,2022-02-24_22h33.58.334,multiplicationStroop,2021.2.3,Win32,59.96282305,,,,,left,0,0.3675,0,61,61,9,1,2,4,2 | 4,2,1.4111,1.9756,congruent,right,,,,,,stimulusFile/physical.xlsx,,,,,,,,,,,,,,,,,,,,,,,,,,,,,,,
,,,,,,,,,,,,,,,8389,2022-02-24_22h33.58.334,multiplicationStroop,2021.2.3,Win32,59.96282305,,,,,left,0,0.5731,0,62,62,63,1,9,9,9 | 9,0,1.4111,1.9756,neutral,right,,,,,,stimulusFile/physical.xlsx,,,,,,,,,,,,,,,,,,,,,,,,,,,,,,,
,,,,,,,,,,,,,,,8389,2022-02-24_22h33.58.334,multiplicationStroop,2021.2.3,Win32,59.96282305,,,,,left,0,0.1342,0,63,63,1,1,3,4,3 | 4,1,1.4111,1.9756,congruent,right,,,,,,stimulusFile/physical.xlsx,,,,,,,,,,,,,,,,,,,,,,,,,,,,,,,
,,,,,,,,,,,,,,,8389,2022-02-24_22h33.58.334,multiplicationStroop,2021.2.3,Win32,59.96282305,,,,,right,1,9.5176,0,64,64,58,1,6,6,6 | 6,0,1.4111,1.9756,neutral,right,,,,,,stimulusFile/physical.xlsx,,,,,,,,,,,,,,,,,,,,,,,,,,,,,,,
,,,,,,,,,,,,,,,8389,2022-02-24_22h33.58.334,multiplicationStroop,2021.2.3,Win32,59.96282305,,,,,right,1,0.555,0,65,65,60,1,3,3,3 | 3,0,1.4111,1.9756,neutral,right,,,,,,stimulusFile/physical.xlsx,,,,,,,,,,,,,,,,,,,,,,,,,,,,,,,
,,,,,,,,,,,,,,,8389,2022-02-24_22h33.58.334,multiplicationStroop,2021.2.3,Win32,59.96282305,,,,,left,1,0.4185,0,66,66,21,1,7,2,7 | 2,5,1.9756,1.4111,congruent,left,,,,,,stimulusFile/physical.xlsx,,,,,,,,,,,,,,,,,,,,,,,,,,,,,,,
,,,,,,,,,,,,,,,8389,2022-02-24_22h33.58.334,multiplicationStroop,2021.2.3,Win32,59.96282305,,,,,right,1,0.97,0,67,67,8,1,1,3,1 | 3,2,1.4111,1.9756,congruent,right,,,,,,stimulusFile/physical.xlsx,,,,,,,,,,,,,,,,,,,,,,,,,,,,,,,
,,,,,,,,,,,,,,,8389,2022-02-24_22h33.58.334,multiplicationStroop,2021.2.3,Win32,59.96282305,,,,,right,1,0.5675,0,68,68,17,1,2,7,2 | 7,5,1.4111,1.9756,congruent,right,,,,,,stimulusFile/physical.xlsx,,,,,,,,,,,,,,,,,,,,,,,,,,,,,,,
,,,,,,,,,,,,,,,8389,2022-02-24_22h33.58.334,multiplicationStroop,2021.2.3,Win32,59.96282305,,,,,right,1,0.4839,0,69,69,62,1,8,8,8 | 8,0,1.4111,1.9756,neutral,right,,,,,,stimulusFile/physical.xlsx,,,,,,,,,,,,,,,,,,,,,,,,,,,,,,,
,,,,,,,,,,,,,,,8389,2022-02-24_22h33.58.334,multiplicationStroop,2021.2.3,Win32,59.96282305,,,,,left,1,0.4175,0,70,70,24,1,1,2,1 | 2,1,1.9756,1.4111,incongruent,left,,,,,,stimulusFile/physical.xlsx,,,,,,,,,,,,,,,,,,,,,,,,,,,,,,,
,,,,,,,,,,,,,,,8389,2022-02-24_22h33.58.334,multiplicationStroop,2021.2.3,Win32,59.96282305,,,,,left,0,0.3845,0,71,71,44,1,6,1,6 | 1,5,1.4111,1.9756,incongruent,right,,,,,,stimulusFile/physical.xlsx,,,,,,,,,,,,,,,,,,,,,,,,,,,,,,,
,,,,,,,,,,,,,,,8389,2022-02-24_22h33.58.334,multiplicationStroop,2021.2.3,Win32,59.96282305,,,,,,,,,,,,,,,,,,,,,0,1,1,1,1,stimulusFile/physical.xlsx,PHYSICALLY larger (larger font size).,images/physicallyLarger.png,,,,,,,,,,,,,,,,,,,,,,,,,,,,,
,,,,,,,,,,,,,,,8389,2022-02-24_22h33.58.334,multiplicationStroop,2021.2.3,Win32,59.96282305,,,,,,,,,,,,,,,,,,,,,,,,,,,,,space,79.6375,space,2.2696,10,5.4097,1,0,0,0,7,1,2,×,5,2 × 5,incongruent,smallerFirst,2,1,10,,,,,,,,
,,,,,,,,,,,,,,,8389,2022-02-24_22h33.58.334,multiplicationStroop,2021.2.3,Win32,59.96282305,,,,,,,,,,,,,,,,,,,,,,,,,,,,,,,,,40,5.3018,1,0,1,1,27,1,8,×,5,8 × 5,incongruent,largerFirst,1,2,40,,,,,,,,
,,,,,,,,,,,,,,,8389,2022-02-24_22h33.58.334,multiplicationStroop,2021.2.3,Win32,59.96282305,,,,,,,,,,,,,,,,,,,,,,,,,,,,,,,,,14,2.1511,1,0,2,2,18,1,7,×,2,7 × 2,incongruent,largerFirst,1,2,14,,,,,,,,
,,,,,,,,,,,,,,,8389,2022-02-24_22h33.58.334,multiplicationStroop,2021.2.3,Win32,59.96282305,,,,,,,,,,,,,,,,,,,,,,,,,,,,,,,,,12,3.1663,1,0,3,3,19,1,4,×,3,4 × 3,incongruent,largerFirst,1,2,12,,,,,,,,
,,,,,,,,,,,,,,,8389,2022-02-24_22h33.58.334,multiplicationStroop,2021.2.3,Win32,59.96282305,,,,,,,,,,,,,,,,,,,,,,,,,,,,,,,,,8,1.6515,1,0,4,4,10,1,2,×,4,2 × 4,incongruent,smallerFirst,2,1,8,,,,,,,,
,,,,,,,,,,,,,,,8389,2022-02-24_22h33.58.334,multiplicationStroop,2021.2.3,Win32,59.96282305,,,,,,,,,,,,,,,,,,,,,,,,,,,,,,,,,35,2.1495,0,0,5,5,3,1,6,×,7,6 × 7,incongruent,smallerFirst,2,1,42,,,,,,,,
,,,,,,,,,,,,,,,8389,2022-02-24_22h33.58.334,multiplicationStroop,2021.2.3,Win32,59.96282305,,,,,,,,,,,,,,,,,,,,,,,,,,,,,,,,,28,2.0497,1,0,6,6,2,1,4,×,7,4 × 7,incongruent,smallerFirst,2,1,28,,,,,,,,
,,,,,,,,,,,,,,,8389,2022-02-24_22h33.58.334,multiplicationStroop,2021.2.3,Win32,59.96282305,,,,,,,,,,,,,,,,,,,,,,,,,,,,,,,,,36,1.8163,1,0,7,7,1,1,4,×,9,4 × 9,incongruent,smallerFirst,2,1,36,,,,,,,,
,,,,,,,,,,,,,,,8389,2022-02-24_22h33.58.334,multiplicationStroop,2021.2.3,Win32,59.96282305,,,,,,,,,,,,,,,,,,,,,,,,,,,,,,,,,21,1.9827,1,0,8,8,12,1,3,×,7,3 × 7,incongruent,smallerFirst,2,1,21,,,,,,,,
,,,,,,,,,,,,,,,8389,2022-02-24_22h33.58.334,multiplicationStroop,2021.2.3,Win32,59.96282305,,,,,,,,,,,,,,,,,,,,,,,,,,,,,,,,,81,2.4494,1,0,9,9,35,1,9,×,9,9 × 9,neutral,tie,2,1,81,,,,,,,,
,,,,,,,,,,,,,,,8389,2022-02-24_22h33.58.334,multiplicationStroop,2021.2.3,Win32,59.96282305,,,,,,,,,,,,,,,,,,,,,,,,,,,,,,,,,20,1.5497,1,0,10,10,13,1,4,×,5,4 × 5,incongruent,smallerFirst,2,1,20,,,,,,,,
,,,,,,,,,,,,,,,8389,2022-02-24_22h33.58.334,multiplicationStroop,2021.2.3,Win32,59.96282305,,,,,,,,,,,,,,,,,,,,,,,,,,,,,,,,,35,1.7163,1,0,11,11,26,1,7,×,5,7 × 5,incongruent,largerFirst,1,2,35,,,,,,,,
,,,,,,,,,,,,,,,8389,2022-02-24_22h33.58.334,multiplicationStroop,2021.2.3,Win32,59.96282305,,,,,,,,,,,,,,,,,,,,,,,,,,,,,,,,,56,4.4831,1,0,12,12,0,1,7,×,8,7 × 8,incongruent,smallerFirst,2,1,56,,,,,,,,
,,,,,,,,,,,,,,,8389,2022-02-24_22h33.58.334,multiplicationStroop,2021.2.3,Win32,59.96282305,,,,,,,,,,,,,,,,,,,,,,,,,,,,,,,,,16,3.0349,1,0,13,13,9,1,2,×,8,2 × 8,incongruent,smallerFirst,2,1,16,,,,,,,,
,,,,,,,,,,,,,,,8389,2022-02-24_22h33.58.334,multiplicationStroop,2021.2.3,Win32,59.96282305,,,,,,,,,,,,,,,,,,,,,,,,,,,,,,,,,32,2.5331,1,0,14,14,21,1,8,×,4,8 × 4,incongruent,largerFirst,1,2,32,,,,,,,,
,,,,,,,,,,,,,,,8389,2022-02-24_22h33.58.334,multiplicationStroop,2021.2.3,Win32,59.96282305,,,,,,,,,,,,,,,,,,,,,,,,,,,,,,,,,18,2.733,1,0,15,15,22,1,6,×,3,6 × 3,incongruent,largerFirst,1,2,18,,,,,,,,
,,,,,,,,,,,,,,,8389,2022-02-24_22h33.58.334,multiplicationStroop,2021.2.3,Win32,59.96282305,,,,,,,,,,,,,,,,,,,,,,,,,,,,,,,,,16,2.2858,1,0,16,16,30,1,4,×,4,4 × 4,neutral,tie,2,1,16,,,,,,,,
,,,,,,,,,,,,,,,8389,2022-02-24_22h33.58.334,multiplicationStroop,2021.2.3,Win32,59.96282305,,,,,,,,,,,,,,,,,,,,,,,,,,,,,,,,,12,1.4659,1,0,17,17,5,1,2,×,6,2 × 6,incongruent,smallerFirst,2,1,12,,,,,,,,
,,,,,,,,,,,,,,,8389,2022-02-24_22h33.58.334,multiplicationStroop,2021.2.3,Win32,59.96282305,,,,,,,,,,,,,,,,,,,,,,,,,,,,,,,,,48,2.3164,1,0,18,18,15,1,8,×,6,8 × 6,incongruent,largerFirst,1,2,48,,,,,,,,
,,,,,,,,,,,,,,,8389,2022-02-24_22h33.58.334,multiplicationStroop,2021.2.3,Win32,59.96282305,,,,,,,,,,,,,,,,,,,,,,,,,,,,,,,,,24,1.8496,1,0,19,19,6,1,4,×,6,4 × 6,incongruent,smallerFirst,2,1,24,,,,,,,,
,,,,,,,,,,,,,,,8389,2022-02-24_22h33.58.334,multiplicationStroop,2021.2.3,Win32,59.96282305,,,,,,,,,,,,,,,,,,,,,,,,,,,,,,,,,9,1.6163,1,0,20,20,29,1,3,×,3,3 × 3,neutral,tie,2,1,9,,,,,,,,
,,,,,,,,,,,,,,,8389,2022-02-24_22h33.58.334,multiplicationStroop,2021.2.3,Win32,59.96282305,,,,,,,,,,,,,,,,,,,,,,,,,,,,,,,,,49,1.7827,1,0,21,21,33,1,7,×,7,7 × 7,neutral,tie,2,1,49,,,,,,,,
,,,,,,,,,,,,,,,8389,2022-02-24_22h33.58.334,multiplicationStroop,2021.2.3,Win32,59.96282305,,,,,,,,,,,,,,,,,,,,,,,,,,,,,,,,,63,8.8833,0,0,22,22,34,1,8,×,8,8 × 8,neutral,tie,2,1,64,,,,,,,,
,,,,,,,,,,,,,,,8389,2022-02-24_22h33.58.334,multiplicationStroop,2021.2.3,Win32,59.96282305,,,,,,,,,,,,,,,,,,,,,,,,,,,,,,,,,15,4.2512,1,0,23,23,24,1,5,×,3,5 × 3,incongruent,largerFirst,1,2,15,,,,,,,,
,,,,,,,,,,,,,,,8389,2022-02-24_22h33.58.334,multiplicationStroop,2021.2.3,Win32,59.96282305,,,,,,,,,,,,,,,,,,,,,,,,,,,,,,,,,54,2.418,1,0,24,24,20,1,9,×,6,9 × 6,incongruent,largerFirst,1,2,54,,,,,,,,
,,,,,,,,,,,,,,,8389,2022-02-24_22h33.58.334,multiplicationStroop,2021.2.3,Win32,59.96282305,,,,,,,,,,,,,,,,,,,,,,,,,,,,,,,,,63,3.1997,1,0,25,25,17,1,9,×,7,9 × 7,incongruent,largerFirst,1,2,63,,,,,,,,
,,,,,,,,,,,,,,,8389,2022-02-24_22h33.58.334,multiplicationStroop,2021.2.3,Win32,59.96282305,,,,,,,,,,,,,,,,,,,,,,,,,,,,,,,,,30,1.8163,1,0,26,26,11,1,5,×,6,5 × 6,incongruent,smallerFirst,2,1,30,,,,,,,,
,,,,,,,,,,,,,,,8389,2022-02-24_22h33.58.334,multiplicationStroop,2021.2.3,Win32,59.96282305,,,,,,,,,,,,,,,,,,,,,,,,,,,,,,,,,25,1.9328,1,0,27,27,31,1,5,×,5,5 × 5,neutral,tie,2,1,25,,,,,,,,
,,,,,,,,,,,,,,,8389,2022-02-24_22h33.58.334,multiplicationStroop,2021.2.3,Win32,59.96282305,,,,,,,,,,,,,,,,,,,,,,,,,,,,,,,,,6,1.6163,1,0,28,28,25,1,3,×,2,3 × 2,incongruent,largerFirst,1,2,6,,,,,,,,
,,,,,,,,,,,,,,,8389,2022-02-24_22h33.58.334,multiplicationStroop,2021.2.3,Win32,59.96282305,,,,,,,,,,,,,,,,,,,,,,,,,,,,,,,,,18,1.716,1,0,29,29,16,1,9,×,2,9 × 2,incongruent,largerFirst,1,2,18,,,,,,,,
,,,,,,,,,,,,,,,8389,2022-02-24_22h33.58.334,multiplicationStroop,2021.2.3,Win32,59.96282305,,,,,,,,,,,,,,,,,,,,,,,,,,,,,,,,,27,1.7997,1,0,30,30,4,1,3,×,9,3 × 9,incongruent,smallerFirst,2,1,27,,,,,,,,
,,,,,,,,,,,,,,,8389,2022-02-24_22h33.58.334,multiplicationStroop,2021.2.3,Win32,59.96282305,,,,,,,,,,,,,,,,,,,,,,,,,,,,,,,,,45,1.9496,1,0,31,31,8,1,5,×,9,5 × 9,incongruent,smallerFirst,2,1,45,,,,,,,,
,,,,,,,,,,,,,,,8389,2022-02-24_22h33.58.334,multiplicationStroop,2021.2.3,Win32,59.96282305,,,,,,,,,,,,,,,,,,,,,,,,,,,,,,,,,36,1.9495,1,0,32,32,32,1,6,×,6,6 × 6,neutral,tie,2,1,36,,,,,,,,
,,,,,,,,,,,,,,,8389,2022-02-24_22h33.58.334,multiplicationStroop,2021.2.3,Win32,59.96282305,,,,,,,,,,,,,,,,,,,,,,,,,,,,,,,,,72,4.1166,1,0,33,33,14,1,9,×,8,9 × 8,incongruent,largerFirst,1,2,72,,,,,,,,
,,,,,,,,,,,,,,,8389,2022-02-24_22h33.58.334,multiplicationStroop,2021.2.3,Win32,59.96282305,,,,,,,,,,,,,,,,,,,,,,,,,,,,,,,,,24,2.6852,1,0,34,34,23,1,8,×,3,8 × 3,incongruent,largerFirst,1,2,24,,,,,,,,
,,,,,,,,,,,,,,,8389,2022-02-24_22h33.58.334,multiplicationStroop,2021.2.3,Win32,59.96282305,,,,,,,,,,,,,,,,,,,,,,,,,,,,,,,,,4,1.4332,1,0,35,35,28,1,2,×,2,2 × 2,neutral,tie,2,1,4,,,,,,,,
,,,,,,,,,,,,,,,8389,2022-02-24_22h33.58.334,multiplicationStroop,2021.2.3,Win32,59.96282305,,,,,,,,,,,,,,,,,,,,,,,,,,,,,,,,,,,,,,,,,,,,,,,,,,0,0,0,4,1,stimulusFile/mult_blk5_INcongruent.xlsx,,
,,,,,,,,,,,,,,,8389,2022-02-24_22h33.58.334,multiplicationStroop,2021.2.3,Win32,59.96282305,,,,,,,,,,,,,,,,,,,,,,,,,,,,,,,space,5.3046,30,2.6685,1,0,0,0,15,1,6,×,5,6 × 5,congruent,largerFirst,2,1,30,,,,,,,,
,,,,,,,,,,,,,,,8389,2022-02-24_22h33.58.334,multiplicationStroop,2021.2.3,Win32,59.96282305,,,,,,,,,,,,,,,,,,,,,,,,,,,,,,,,,8,1.3826,1,0,1,1,9,1,2,×,4,2 × 4,congruent,smallerFirst,1,2,8,,,,,,,,
,,,,,,,,,,,,,,,8389,2022-02-24_22h33.58.334,multiplicationStroop,2021.2.3,Win32,59.96282305,,,,,,,,,,,,,,,,,,,,,,,,,,,,,,,,,12,1.2166,1,0,2,2,19,1,6,×,2,6 × 2,congruent,largerFirst,2,1,12,,,,,,,,
,,,,,,,,,,,,,,,8389,2022-02-24_22h33.58.334,multiplicationStroop,2021.2.3,Win32,59.96282305,,,,,,,,,,,,,,,,,,,,,,,,,,,,,,,,,49,2.3497,1,0,3,3,33,1,7,×,7,7 × 7,neutral,tie,2,1,49,,,,,,,,
,,,,,,,,,,,,,,,8389,2022-02-24_22h33.58.334,multiplicationStroop,2021.2.3,Win32,59.96282305,,,,,,,,,,,,,,,,,,,,,,,,,,,,,,,,,12,1.2995,1,0,4,4,2,1,3,×,4,3 × 4,congruent,smallerFirst,1,2,12,,,,,,,,
,,,,,,,,,,,,,,,8389,2022-02-24_22h33.58.334,multiplicationStroop,2021.2.3,Win32,59.96282305,,,,,,,,,,,,,,,,,,,,,,,,,,,,,,,,,25,1.5494,1,0,5,5,31,1,5,×,5,5 × 5,neutral,tie,2,1,25,,,,,,,,
,,,,,,,,,,,,,,,8389,2022-02-24_22h33.58.334,multiplicationStroop,2021.2.3,Win32,59.96282305,,,,,,,,,,,,,,,,,,,,,,,,,,,,,,,,,40,2.2997,1,0,6,6,6,1,5,×,8,5 × 8,congruent,smallerFirst,1,2,40,,,,,,,,
,,,,,,,,,,,,,,,8389,2022-02-24_22h33.58.334,multiplicationStroop,2021.2.3,Win32,59.96282305,,,,,,,,,,,,,,,,,,,,,,,,,,,,,,,,,16,1.6494,1,0,7,7,30,1,4,×,4,4 × 4,neutral,tie,2,1,16,,,,,,,,
,,,,,,,,,,,,,,,8389,2022-02-24_22h33.58.334,multiplicationStroop,2021.2.3,Win32,59.96282305,,,,,,,,,,,,,,,,,,,,,,,,,,,,,,,,,27,2.6832,1,0,8,8,26,1,9,×,3,9 × 3,congruent,largerFirst,2,1,27,,,,,,,,
,,,,,,,,,,,,,,,8389,2022-02-24_22h33.58.334,multiplicationStroop,2021.2.3,Win32,59.96282305,,,,,,,,,,,,,,,,,,,,,,,,,,,,,,,,,48,2.3663,0,0,9,9,8,1,7,×,8,7 × 8,congruent,smallerFirst,1,2,56,,,,,,,,
,,,,,,,,,,,,,,,8389,2022-02-24_22h33.58.334,multiplicationStroop,2021.2.3,Win32,59.96282305,,,,,,,,,,,,,,,,,,,,,,,,,,,,,,,,,15,1.6328,1,0,10,10,4,1,3,×,5,3 × 5,congruent,smallerFirst,1,2,15,,,,,,,,
,,,,,,,,,,,,,,,8389,2022-02-24_22h33.58.334,multiplicationStroop,2021.2.3,Win32,59.96282305,,,,,,,,,,,,,,,,,,,,,,,,,,,,,,,,,64,1.9664,1,0,11,11,34,1,8,×,8,8 × 8,neutral,tie,2,1,64,,,,,,,,
,,,,,,,,,,,,,,,8389,2022-02-24_22h33.58.334,multiplicationStroop,2021.2.3,Win32,59.96282305,,,,,,,,,,,,,,,,,,,,,,,,,,,,,,,,,20,1.5829,1,0,12,12,7,1,4,×,5,4 × 5,congruent,smallerFirst,1,2,20,,,,,,,,
,,,,,,,,,,,,,,,8389,2022-02-24_22h33.58.334,multiplicationStroop,2021.2.3,Win32,59.96282305,,,,,,,,,,,,,,,,,,,,,,,,,,,,,,,,,36,1.6828,1,0,13,13,32,1,6,×,6,6 × 6,neutral,tie,2,1,36,,,,,,,,
,,,,,,,,,,,,,,,8389,2022-02-24_22h33.58.334,multiplicationStroop,2021.2.3,Win32,59.96282305,,,,,,,,,,,,,,,,,,,,,,,,,,,,,,,,,63,2.6829,1,0,14,14,21,1,9,×,7,9 × 7,congruent,largerFirst,2,1,63,,,,,,,,
,,,,,,,,,,,,,,,8389,2022-02-24_22h33.58.334,multiplicationStroop,2021.2.3,Win32,59.96282305,,,,,,,,,,,,,,,,,,,,,,,,,,,,,,,,,18,1.5329,1,0,15,15,22,1,9,×,2,9 × 2,congruent,largerFirst,2,1,18,,,,,,,,
,,,,,,,,,,,,,,,8389,2022-02-24_22h33.58.334,multiplicationStroop,2021.2.3,Win32,59.96282305,,,,,,,,,,,,,,,,,,,,,,,,,,,,,,,,,24,1.6829,1,0,16,16,25,1,6,×,4,6 × 4,congruent,largerFirst,2,1,24,,,,,,,,
,,,,,,,,,,,,,,,8389,2022-02-24_22h33.58.334,multiplicationStroop,2021.2.3,Win32,59.96282305,,,,,,,,,,,,,,,,,,,,,,,,,,,,,,,,,54,2.7329,1,0,17,17,12,1,6,×,9,6 × 9,congruent,smallerFirst,1,2,54,,,,,,,,
,,,,,,,,,,,,,,,8389,2022-02-24_22h33.58.334,multiplicationStroop,2021.2.3,Win32,59.96282305,,,,,,,,,,,,,,,,,,,,,,,,,,,,,,,,,4,1.9663,1,0,18,18,28,1,2,×,2,2 × 2,neutral,tie,2,1,4,,,,,,,,
,,,,,,,,,,,,,,,8389,2022-02-24_22h33.58.334,multiplicationStroop,2021.2.3,Win32,59.96282305,,,,,,,,,,,,,,,,,,,,,,,,,,,,,,,,,32,2.0494,1,0,19,19,20,1,8,×,4,8 × 4,congruent,largerFirst,2,1,32,,,,,,,,
,,,,,,,,,,,,,,,8389,2022-02-24_22h33.58.334,multiplicationStroop,2021.2.3,Win32,59.96282305,,,,,,,,,,,,,,,,,,,,,,,,,,,,,,,,,48,1.6163,1,0,20,20,18,1,8,×,6,8 × 6,congruent,largerFirst,2,1,48,,,,,,,,
,,,,,,,,,,,,,,,8389,2022-02-24_22h33.58.334,multiplicationStroop,2021.2.3,Win32,59.96282305,,,,,,,,,,,,,,,,,,,,,,,,,,,,,,,,,81,2.533,1,0,21,21,35,1,9,×,9,9 × 9,neutral,tie,2,1,81,,,,,,,,
,,,,,,,,,,,,,,,8389,2022-02-24_22h33.58.334,multiplicationStroop,2021.2.3,Win32,59.96282305,,,,,,,,,,,,,,,,,,,,,,,,,,,,,,,,,9,1.6996,1,0,22,22,29,1,3,×,3,3 × 3,neutral,tie,2,1,9,,,,,,,,
,,,,,,,,,,,,,,,8389,2022-02-24_22h33.58.334,multiplicationStroop,2021.2.3,Win32,59.96282305,,,,,,,,,,,,,,,,,,,,,,,,,,,,,,,,,14,1.6328,1,0,23,23,14,1,7,×,2,7 × 2,congruent,largerFirst,2,1,14,,,,,,,,
,,,,,,,,,,,,,,,8389,2022-02-24_22h33.58.334,multiplicationStroop,2021.2.3,Win32,59.96282305,,,,,,,,,,,,,,,,,,,,,,,,,,,,,,,,,24,1.3996,1,0,24,24,10,1,3,×,8,3 × 8,congruent,smallerFirst,1,2,24,,,,,,,,
,,,,,,,,,,,,,,,8389,2022-02-24_22h33.58.334,multiplicationStroop,2021.2.3,Win32,59.96282305,,,,,,,,,,,,,,,,,,,,,,,,,,,,,,,,,21,1.3161,1,0,25,25,16,1,7,×,3,7 × 3,congruent,largerFirst,2,1,21,,,,,,,,
,,,,,,,,,,,,,,,8389,2022-02-24_22h33.58.334,multiplicationStroop,2021.2.3,Win32,59.96282305,,,,,,,,,,,,,,,,,,,,,,,,,,,,,,,,,28,2.0996,1,0,26,26,27,1,7,×,4,7 × 4,congruent,largerFirst,2,1,28,,,,,,,,
,,,,,,,,,,,,,,,8389,2022-02-24_22h33.58.334,multiplicationStroop,2021.2.3,Win32,59.96282305,,,,,,,,,,,,,,,,,,,,,,,,,,,,,,,,,72,1.6827,1,0,27,27,17,1,9,×,8,9 × 8,congruent,largerFirst,2,1,72,,,,,,,,
,,,,,,,,,,,,,,,8389,2022-02-24_22h33.58.334,multiplicationStroop,2021.2.3,Win32,59.96282305,,,,,,,,,,,,,,,,,,,,,,,,,,,,,,,,,6,1.4995,1,0,28,28,13,1,2,×,3,2 × 3,congruent,smallerFirst,1,2,6,,,,,,,,
,,,,,,,,,,,,,,,8389,2022-02-24_22h33.58.334,multiplicationStroop,2021.2.3,Win32,59.96282305,,,,,,,,,,,,,,,,,,,,,,,,,,,,,,,,,35,2.683,1,0,29,29,1,1,5,×,7,5 × 7,congruent,smallerFirst,1,2,35,,,,,,,,
,,,,,,,,,,,,,,,8389,2022-02-24_22h33.58.334,multiplicationStroop,2021.2.3,Win32,59.96282305,,,,,,,,,,,,,,,,,,,,,,,,,,,,,,,,,10,2.683,1,0,30,30,24,1,5,×,2,5 × 2,congruent,largerFirst,2,1,10,,,,,,,,
,,,,,,,,,,,,,,,8389,2022-02-24_22h33.58.334,multiplicationStroop,2021.2.3,Win32,59.96282305,,,,,,,,,,,,,,,,,,,,,,,,,,,,,,,,,35,3.6018,0,0,31,31,3,1,6,×,7,6 × 7,congruent,smallerFirst,1,2,42,,,,,,,,
,,,,,,,,,,,,,,,8389,2022-02-24_22h33.58.334,multiplicationStroop,2021.2.3,Win32,59.96282305,,,,,,,,,,,,,,,,,,,,,,,,,,,,,,,,,45,2.1663,1,0,32,32,23,1,9,×,5,9 × 5,congruent,largerFirst,2,1,45,,,,,,,,
,,,,,,,,,,,,,,,8389,2022-02-24_22h33.58.334,multiplicationStroop,2021.2.3,Win32,59.96282305,,,,,,,,,,,,,,,,,,,,,,,,,,,,,,,,,36,2.333,1,0,33,33,0,1,4,×,9,4 × 9,congruent,smallerFirst,1,2,36,,,,,,,,
,,,,,,,,,,,,,,,8389,2022-02-24_22h33.58.334,multiplicationStroop,2021.2.3,Win32,59.96282305,,,,,,,,,,,,,,,,,,,,,,,,,,,,,,,,,18,1.6517,1,0,34,34,11,1,3,×,6,3 × 6,congruent,smallerFirst,1,2,18,,,,,,,,
,,,,,,,,,,,,,,,8389,2022-02-24_22h33.58.334,multiplicationStroop,2021.2.3,Win32,59.96282305,,,,,,,,,,,,,,,,,,,,,,,,,,,,,,,,,16,2.1162,1,0,35,35,5,1,2,×,8,2 × 8,congruent,smallerFirst,1,2,16,,,,,,,,
,,,,,,,,,,,,,,,8389,2022-02-24_22h33.58.334,multiplicationStroop,2021.2.3,Win32,59.96282305,,,,,,,,,,,,,,,,,,,,,,,,,,,,,,,,,,,,,,,,,,,,,,,,,,0,1,1,2,1,stimulusFile/mult_blk3_congruent.xlsx,,
,,,,,,,,,,,,,,,8389,2022-02-24_22h33.58.334,multiplicationStroop,2021.2.3,Win32,59.96282305,,,,,,,,,,,,,,,,,,,,,,,,,,,,,,,space,150.841,21,4.2506,1,0,0,0,2,1,3,×,7,3 × 7,congruent,smallerFirst,1,2,21,,,,,,,,
,,,,,,,,,,,,,,,8389,2022-02-24_22h33.58.334,multiplicationStroop,2021.2.3,Win32,59.96282305,,,,,,,,,,,,,,,,,,,,,,,,,,,,,,,,,8,1.459,1,0,1,1,23,1,4,×,2,4 × 2,congruent,largerFirst,2,1,8,,,,,,,,
,,,,,,,,,,,,,,,8389,2022-02-24_22h33.58.334,multiplicationStroop,2021.2.3,Win32,59.96282305,,,,,,,,,,,,,,,,,,,,,,,,,,,,,,,,,36,1.6996,1,0,2,2,14,1,9,×,4,9 × 4,congruent,largerFirst,2,1,36,,,,,,,,
,,,,,,,,,,,,,,,8389,2022-02-24_22h33.58.334,multiplicationStroop,2021.2.3,Win32,59.96282305,,,,,,,,,,,,,,,,,,,,,,,,,,,,,,,,,36,2.1438,1,0,3,3,32,1,6,×,6,6 × 6,neutral,tie,1,2,36,,,,,,,,
,,,,,,,,,,,,,,,8389,2022-02-24_22h33.58.334,multiplicationStroop,2021.2.3,Win32,59.96282305,,,,,,,,,,,,,,,,,,,,,,,,,,,,,,,,,9,1.4554,1,0,4,4,29,1,3,×,3,3 × 3,neutral,tie,1,2,9,,,,,,,,
,,,,,,,,,,,,,,,8389,2022-02-24_22h33.58.334,multiplicationStroop,2021.2.3,Win32,59.96282305,,,,,,,,,,,,,,,,,,,,,,,,,,,,,,,,,20,1.5996,1,0,5,5,21,1,5,×,4,5 × 4,congruent,largerFirst,2,1,20,,,,,,,,
,,,,,,,,,,,,,,,8389,2022-02-24_22h33.58.334,multiplicationStroop,2021.2.3,Win32,59.96282305,,,,,,,,,,,,,,,,,,,,,,,,,,,,,,,,,28,2.0161,1,0,6,6,13,1,4,×,7,4 × 7,congruent,smallerFirst,1,2,28,,,,,,,,
,,,,,,,,,,,,,,,8389,2022-02-24_22h33.58.334,multiplicationStroop,2021.2.3,Win32,59.96282305,,,,,,,,,,,,,,,,,,,,,,,,,,,,,,,,,18,1.4494,1,0,7,7,8,1,2,×,9,2 × 9,congruent,smallerFirst,1,2,18,,,,,,,,
,,,,,,,,,,,,,,,8389,2022-02-24_22h33.58.334,multiplicationStroop,2021.2.3,Win32,59.96282305,,,,,,,,,,,,,,,,,,,,,,,,,,,,,,,,,16,1.533,1,0,8,8,19,1,8,×,2,8 × 2,congruent,largerFirst,2,1,16,,,,,,,,
,,,,,,,,,,,,,,,8389,2022-02-24_22h33.58.334,multiplicationStroop,2021.2.3,Win32,59.96282305,,,,,,,,,,,,,,,,,,,,,,,,,,,,,,,,,16,1.6164,1,0,9,9,30,1,4,×,4,4 × 4,neutral,tie,1,2,16,,,,,,,,
,,,,,,,,,,,,,,,8389,2022-02-24_22h33.58.334,multiplicationStroop,2021.2.3,Win32,59.96282305,,,,,,,,,,,,,,,,,,,,,,,,,,,,,,,,,48,2.683,1,0,10,10,4,1,6,×,8,6 × 8,congruent,smallerFirst,1,2,48,,,,,,,,
,,,,,,,,,,,,,,,8389,2022-02-24_22h33.58.334,multiplicationStroop,2021.2.3,Win32,59.96282305,,,,,,,,,,,,,,,,,,,,,,,,,,,,,,,,,15,1.4996,1,0,11,11,18,1,5,×,3,5 × 3,congruent,largerFirst,2,1,15,,,,,,,,
,,,,,,,,,,,,,,,8389,2022-02-24_22h33.58.334,multiplicationStroop,2021.2.3,Win32,59.96282305,,,,,,,,,,,,,,,,,,,,,,,,,,,,,,,,,27,1.6994,0,0,12,12,16,1,4,×,3,4 × 3,congruent,largerFirst,2,1,12,,,,,,,,
,,,,,,,,,,,,,,,8389,2022-02-24_22h33.58.334,multiplicationStroop,2021.2.3,Win32,59.96282305,,,,,,,,,,,,,,,,,,,,,,,,,,,,,,,,,12,1.3164,1,0,13,13,5,1,2,×,6,2 × 6,congruent,smallerFirst,1,2,12,,,,,,,,
,,,,,,,,,,,,,,,8389,2022-02-24_22h33.58.334,multiplicationStroop,2021.2.3,Win32,59.96282305,,,,,,,,,,,,,,,,,,,,,,,,,,,,,,,,,32,3.1496,1,0,14,14,6,1,4,×,8,4 × 8,congruent,smallerFirst,1,2,32,,,,,,,,
,,,,,,,,,,,,,,,8389,2022-02-24_22h33.58.334,multiplicationStroop,2021.2.3,Win32,59.96282305,,,,,,,,,,,,,,,,,,,,,,,,,,,,,,,,,10,1.5163,1,0,15,15,10,1,2,×,5,2 × 5,congruent,smallerFirst,1,2,10,,,,,,,,
,,,,,,,,,,,,,,,8389,2022-02-24_22h33.58.334,multiplicationStroop,2021.2.3,Win32,59.96282305,,,,,,,,,,,,,,,,,,,,,,,,,,,,,,,,,18,1.5328,1,0,16,16,25,1,6,×,3,6 × 3,congruent,largerFirst,2,1,18,,,,,,,,
,,,,,,,,,,,,,,,8389,2022-02-24_22h33.58.334,multiplicationStroop,2021.2.3,Win32,59.96282305,,,,,,,,,,,,,,,,,,,,,,,,,,,,,,,,,30,1.7163,1,0,17,17,1,1,5,×,6,5 × 6,congruent,smallerFirst,1,2,30,,,,,,,,
,,,,,,,,,,,,,,,8389,2022-02-24_22h33.58.334,multiplicationStroop,2021.2.3,Win32,59.96282305,,,,,,,,,,,,,,,,,,,,,,,,,,,,,,,,,45,3.4332,1,0,18,18,9,1,5,×,9,5 × 9,congruent,smallerFirst,1,2,45,,,,,,,,
,,,,,,,,,,,,,,,8389,2022-02-24_22h33.58.334,multiplicationStroop,2021.2.3,Win32,59.96282305,,,,,,,,,,,,,,,,,,,,,,,,,,,,,,,,,54,3.0664,1,0,19,19,26,1,9,×,6,9 × 6,congruent,largerFirst,2,1,54,,,,,,,,
,,,,,,,,,,,,,,,8389,2022-02-24_22h33.58.334,multiplicationStroop,2021.2.3,Win32,59.96282305,,,,,,,,,,,,,,,,,,,,,,,,,,,,,,,,,56,4.0182,1,0,20,20,22,1,8,×,7,8 × 7,congruent,largerFirst,2,1,56,,,,,,,,
,,,,,,,,,,,,,,,8389,2022-02-24_22h33.58.334,multiplicationStroop,2021.2.3,Win32,59.96282305,,,,,,,,,,,,,,,,,,,,,,,,,,,,,,,,,40,1.6189,1,0,21,21,20,1,8,×,5,8 × 5,congruent,largerFirst,2,1,40,,,,,,,,
,,,,,,,,,,,,,,,8389,2022-02-24_22h33.58.334,multiplicationStroop,2021.2.3,Win32,59.96282305,,,,,,,,,,,,,,,,,,,,,,,,,,,,,,,,,14,1.4495,1,0,22,22,0,1,2,×,7,2 × 7,congruent,smallerFirst,1,2,14,,,,,,,,
,,,,,,,,,,,,,,,8389,2022-02-24_22h33.58.334,multiplicationStroop,2021.2.3,Win32,59.96282305,,,,,,,,,,,,,,,,,,,,,,,,,,,,,,,,,49,2.2664,1,0,23,23,33,1,7,×,7,7 × 7,neutral,tie,1,2,49,,,,,,,,
,,,,,,,,,,,,,,,8389,2022-02-24_22h33.58.334,multiplicationStroop,2021.2.3,Win32,59.96282305,,,,,,,,,,,,,,,,,,,,,,,,,,,,,,,,,25,1.9515,1,0,24,24,31,1,5,×,5,5 × 5,neutral,tie,1,2,25,,,,,,,,
,,,,,,,,,,,,,,,8389,2022-02-24_22h33.58.334,multiplicationStroop,2021.2.3,Win32,59.96282305,,,,,,,,,,,,,,,,,,,,,,,,,,,,,,,,,35,2.1163,1,0,25,25,15,1,7,×,5,7 × 5,congruent,largerFirst,2,1,35,,,,,,,,
,,,,,,,,,,,,,,,8389,2022-02-24_22h33.58.334,multiplicationStroop,2021.2.3,Win32,59.96282305,,,,,,,,,,,,,,,,,,,,,,,,,,,,,,,,,81,3.7995,1,0,26,26,35,1,9,×,9,9 × 9,neutral,tie,1,2,81,,,,,,,,
,,,,,,,,,,,,,,,8389,2022-02-24_22h33.58.334,multiplicationStroop,2021.2.3,Win32,59.96282305,,,,,,,,,,,,,,,,,,,,,,,,,,,,,,,,,4,1.9865,1,0,27,27,28,1,2,×,2,2 × 2,neutral,tie,1,2,4,,,,,,,,
,,,,,,,,,,,,,,,8389,2022-02-24_22h33.58.334,multiplicationStroop,2021.2.3,Win32,59.96282305,,,,,,,,,,,,,,,,,,,,,,,,,,,,,,,,,72,2.6995,1,0,28,28,3,1,8,×,9,8 × 9,congruent,smallerFirst,1,2,72,,,,,,,,
,,,,,,,,,,,,,,,8389,2022-02-24_22h33.58.334,multiplicationStroop,2021.2.3,Win32,59.96282305,,,,,,,,,,,,,,,,,,,,,,,,,,,,,,,,,42,2.3164,1,0,29,29,17,1,7,×,6,7 × 6,congruent,largerFirst,2,1,42,,,,,,,,
,,,,,,,,,,,,,,,8389,2022-02-24_22h33.58.334,multiplicationStroop,2021.2.3,Win32,59.96282305,,,,,,,,,,,,,,,,,,,,,,,,,,,,,,,,,24,1.6161,1,0,30,30,24,1,8,×,3,8 × 3,congruent,largerFirst,2,1,24,,,,,,,,
,,,,,,,,,,,,,,,8389,2022-02-24_22h33.58.334,multiplicationStroop,2021.2.3,Win32,59.96282305,,,,,,,,,,,,,,,,,,,,,,,,,,,,,,,,,64,5.3831,1,0,31,31,34,1,8,×,8,8 × 8,neutral,tie,1,2,64,,,,,,,,
,,,,,,,,,,,,,,,8389,2022-02-24_22h33.58.334,multiplicationStroop,2021.2.3,Win32,59.96282305,,,,,,,,,,,,,,,,,,,,,,,,,,,,,,,,,24,2.3514,1,0,32,32,11,1,4,×,6,4 × 6,congruent,smallerFirst,1,2,24,,,,,,,,
,,,,,,,,,,,,,,,8389,2022-02-24_22h33.58.334,multiplicationStroop,2021.2.3,Win32,59.96282305,,,,,,,,,,,,,,,,,,,,,,,,,,,,,,,,,27,1.6994,1,0,33,33,12,1,3,×,9,3 × 9,congruent,smallerFirst,1,2,27,,,,,,,,
,,,,,,,,,,,,,,,8389,2022-02-24_22h33.58.334,multiplicationStroop,2021.2.3,Win32,59.96282305,,,,,,,,,,,,,,,,,,,,,,,,,,,,,,,,,6,1.8662,1,0,34,34,27,1,3,×,2,3 × 2,congruent,largerFirst,2,1,6,,,,,,,,
,,,,,,,,,,,,,,,8389,2022-02-24_22h33.58.334,multiplicationStroop,2021.2.3,Win32,59.96282305,,,,,,,,,,,,,,,,,,,,,,,,,,,,,,,,,62,1.9996,0,0,35,35,7,1,7,×,9,7 × 9,congruent,smallerFirst,1,2,63,,,,,,,,
,,,,,,,,,,,,,,,8389,2022-02-24_22h33.58.334,multiplicationStroop,2021.2.3,Win32,59.96282305,,,,,,,,,,,,,,,,,,,,,,,,,,,,,,,,,,,,,,,,,,,,,,,,,,0,2,2,3,1,stimulusFile/mult_blk4_congruent.xlsx,,
,,,,,,,,,,,,,,,8389,2022-02-24_22h33.58.334,multiplicationStroop,2021.2.3,Win32,59.96282305,,,,,,,,,,,,,,,,,,,,,,,,,,,,,,,space,64.8079,24,1.6475,1,0,0,0,16,1,6,×,4,6 × 4,neutral,largerFirst,1.5,1.5,24,,,,,,,,
,,,,,,,,,,,,,,,8389,2022-02-24_22h33.58.334,multiplicationStroop,2021.2.3,Win32,59.96282305,,,,,,,,,,,,,,,,,,,,,,,,,,,,,,,,,18,1.5662,1,0,1,1,14,1,6,×,3,6 × 3,neutral,largerFirst,1.5,1.5,18,,,,,,,,
,,,,,,,,,,,,,,,8389,2022-02-24_22h33.58.334,multiplicationStroop,2021.2.3,Win32,59.96282305,,,,,,,,,,,,,,,,,,,,,,,,,,,,,,,,,28,2.3163,1,0,2,2,3,1,4,×,7,4 × 7,neutral,smallerFirst,1.5,1.5,28,,,,,,,,
,,,,,,,,,,,,,,,8389,2022-02-24_22h33.58.334,multiplicationStroop,2021.2.3,Win32,59.96282305,,,,,,,,,,,,,,,,,,,,,,,,,,,,,,,,,24,2.1162,1,0,3,3,8,1,3,×,8,3 × 8,neutral,smallerFirst,1.5,1.5,24,,,,,,,,
,,,,,,,,,,,,,,,8389,2022-02-24_22h33.58.334,multiplicationStroop,2021.2.3,Win32,59.96282305,,,,,,,,,,,,,,,,,,,,,,,,,,,,,,,,,56,2.8829,1,0,4,4,23,1,8,×,7,8 × 7,neutral,largerFirst,1.5,1.5,56,,,,,,,,
,,,,,,,,,,,,,,,8389,2022-02-24_22h33.58.334,multiplicationStroop,2021.2.3,Win32,59.96282305,,,,,,,,,,,,,,,,,,,,,,,,,,,,,,,,,81,1.4517,1,0,5,5,35,1,9,×,9,9 × 9,neutral,tie,1.5,1.5,81,,,,,,,,
,,,,,,,,,,,,,,,8389,2022-02-24_22h33.58.334,multiplicationStroop,2021.2.3,Win32,59.96282305,,,,,,,,,,,,,,,,,,,,,,,,,,,,,,,,,8,1.3163,1,0,6,6,17,1,4,×,2,4 × 2,neutral,largerFirst,1.5,1.5,8,,,,,,,,
,,,,,,,,,,,,,,,8389,2022-02-24_22h33.58.334,multiplicationStroop,2021.2.3,Win32,59.96282305,,,,,,,,,,,,,,,,,,,,,,,,,,,,,,,,,48,1.7664,1,0,7,7,1,1,6,×,8,6 × 8,neutral,smallerFirst,1.5,1.5,48,,,,,,,,
,,,,,,,,,,,,,,,8389,2022-02-24_22h33.58.334,multiplicationStroop,2021.2.3,Win32,59.96282305,,,,,,,,,,,,,,,,,,,,,,,,,,,,,,,,,72,2.0328,1,0,8,8,25,1,9,×,8,9 × 8,neutral,largerFirst,1.5,1.5,72,,,,,,,,
,,,,,,,,,,,,,,,8389,2022-02-24_22h33.58.334,multiplicationStroop,2021.2.3,Win32,59.96282305,,,,,,,,,,,,,,,,,,,,,,,,,,,,,,,,,54,2.1997,1,0,9,9,21,1,9,×,6,9 × 6,neutral,largerFirst,1.5,1.5,54,,,,,,,,
,,,,,,,,,,,,,,,8389,2022-02-24_22h33.58.334,multiplicationStroop,2021.2.3,Win32,59.96282305,,,,,,,,,,,,,,,,,,,,,,,,,,,,,,,,,49,1.8664,1,0,10,10,33,1,7,×,7,7 × 7,neutral,tie,1.5,1.5,49,,,,,,,,
,,,,,,,,,,,,,,,8389,2022-02-24_22h33.58.334,multiplicationStroop,2021.2.3,Win32,59.96282305,,,,,,,,,,,,,,,,,,,,,,,,,,,,,,,,,4,1.2327,1,0,11,11,28,1,2,×,2,2 × 2,neutral,tie,1.5,1.5,4,,,,,,,,
,,,,,,,,,,,,,,,8389,2022-02-24_22h33.58.334,multiplicationStroop,2021.2.3,Win32,59.96282305,,,,,,,,,,,,,,,,,,,,,,,,,,,,,,,,,36,1.8831,1,0,12,12,13,1,4,×,9,4 × 9,neutral,smallerFirst,1.5,1.5,36,,,,,,,,
,,,,,,,,,,,,,,,8389,2022-02-24_22h33.58.334,multiplicationStroop,2021.2.3,Win32,59.96282305,,,,,,,,,,,,,,,,,,,,,,,,,,,,,,,,,9,1.3662,1,0,13,13,29,1,3,×,3,3 × 3,neutral,tie,1.5,1.5,9,,,,,,,,
,,,,,,,,,,,,,,,8389,2022-02-24_22h33.58.334,multiplicationStroop,2021.2.3,Win32,59.96282305,,,,,,,,,,,,,,,,,,,,,,,,,,,,,,,,,36,2.4996,1,0,14,14,32,1,6,×,6,6 × 6,neutral,tie,1.5,1.5,36,,,,,,,,
,,,,,,,,,,,,,,,8389,2022-02-24_22h33.58.334,multiplicationStroop,2021.2.3,Win32,59.96282305,,,,,,,,,,,,,,,,,,,,,,,,,,,,,,,,,40,1.7016,1,0,15,15,10,1,5,×,8,5 × 8,neutral,smallerFirst,1.5,1.5,40,,,,,,,,
,,,,,,,,,,,,,,,8389,2022-02-24_22h33.58.334,multiplicationStroop,2021.2.3,Win32,59.96282305,,,,,,,,,,,,,,,,,,,,,,,,,,,,,,,,,42,3.2163,1,0,16,16,20,1,7,×,6,7 × 6,neutral,largerFirst,1.5,1.5,42,,,,,,,,
,,,,,,,,,,,,,,,8389,2022-02-24_22h33.58.334,multiplicationStroop,2021.2.3,Win32,59.96282305,,,,,,,,,,,,,,,,,,,,,,,,,,,,,,,,,12,2.0014,1,0,17,17,7,1,3,×,4,3 × 4,neutral,smallerFirst,1.5,1.5,12,,,,,,,,
,,,,,,,,,,,,,,,8389,2022-02-24_22h33.58.334,multiplicationStroop,2021.2.3,Win32,59.96282305,,,,,,,,,,,,,,,,,,,,,,,,,,,,,,,,,21,1.4513,1,0,18,18,22,1,7,×,3,7 × 3,neutral,largerFirst,1.5,1.5,21,,,,,,,,
,,,,,,,,,,,,,,,8389,2022-02-24_22h33.58.334,multiplicationStroop,2021.2.3,Win32,59.96282305,,,,,,,,,,,,,,,,,,,,,,,,,,,,,,,,,63,2.3643,1,0,19,19,26,1,9,×,7,9 × 7,neutral,largerFirst,1.5,1.5,63,,,,,,,,
,,,,,,,,,,,,,,,8389,2022-02-24_22h33.58.334,multiplicationStroop,2021.2.3,Win32,59.96282305,,,,,,,,,,,,,,,,,,,,,,,,,,,,,,,,,15,1.8663,1,0,20,20,19,1,5,×,3,5 × 3,neutral,largerFirst,1.5,1.5,15,,,,,,,,
,,,,,,,,,,,,,,,8389,2022-02-24_22h33.58.334,multiplicationStroop,2021.2.3,Win32,59.96282305,,,,,,,,,,,,,,,,,,,,,,,,,,,,,,,,,6,1.4495,1,0,21,21,12,1,2,×,3,2 × 3,neutral,smallerFirst,1.5,1.5,6,,,,,,,,
,,,,,,,,,,,,,,,8389,2022-02-24_22h33.58.334,multiplicationStroop,2021.2.3,Win32,59.96282305,,,,,,,,,,,,,,,,,,,,,,,,,,,,,,,,,32,2.3496,1,0,22,22,9,1,4,×,8,4 × 8,neutral,smallerFirst,1.5,1.5,32,,,,,,,,
,,,,,,,,,,,,,,,8389,2022-02-24_22h33.58.334,multiplicationStroop,2021.2.3,Win32,59.96282305,,,,,,,,,,,,,,,,,,,,,,,,,,,,,,,,,18,2.1995,1,0,23,23,4,1,2,×,9,2 × 9,neutral,smallerFirst,1.5,1.5,18,,,,,,,,
,,,,,,,,,,,,,,,8389,2022-02-24_22h33.58.334,multiplicationStroop,2021.2.3,Win32,59.96282305,,,,,,,,,,,,,,,,,,,,,,,,,,,,,,,,,45,1.5773,1,0,24,24,24,1,9,×,5,9 × 5,neutral,largerFirst,1.5,1.5,45,,,,,,,,
,,,,,,,,,,,,,,,8389,2022-02-24_22h33.58.334,multiplicationStroop,2021.2.3,Win32,59.96282305,,,,,,,,,,,,,,,,,,,,,,,,,,,,,,,,,64,2.1885,1,0,25,25,34,1,8,×,8,8 × 8,neutral,tie,1.5,1.5,64,,,,,,,,
,,,,,,,,,,,,,,,8389,2022-02-24_22h33.58.334,multiplicationStroop,2021.2.3,Win32,59.96282305,,,,,,,,,,,,,,,,,,,,,,,,,,,,,,,,,25,1.8825,1,0,26,26,31,1,5,×,5,5 × 5,neutral,tie,1.5,1.5,25,,,,,,,,
,,,,,,,,,,,,,,,8389,2022-02-24_22h33.58.334,multiplicationStroop,2021.2.3,Win32,59.96282305,,,,,,,,,,,,,,,,,,,,,,,,,,,,,,,,,12,2.2832,1,0,27,27,11,1,2,×,6,2 × 6,neutral,smallerFirst,1.5,1.5,12,,,,,,,,
,,,,,,,,,,,,,,,8389,2022-02-24_22h33.58.334,multiplicationStroop,2021.2.3,Win32,59.96282305,,,,,,,,,,,,,,,,,,,,,,,,,,,,,,,,,20,1.7828,1,0,28,28,6,1,4,×,5,4 × 5,neutral,smallerFirst,1.5,1.5,20,,,,,,,,
,,,,,,,,,,,,,,,8389,2022-02-24_22h33.58.334,multiplicationStroop,2021.2.3,Win32,59.96282305,,,,,,,,,,,,,,,,,,,,,,,,,,,,,,,,,16,1.5663,1,0,29,29,27,1,8,×,2,8 × 2,neutral,largerFirst,1.5,1.5,16,,,,,,,,
,,,,,,,,,,,,,,,8389,2022-02-24_22h33.58.334,multiplicationStroop,2021.2.3,Win32,59.96282305,,,,,,,,,,,,,,,,,,,,,,,,,,,,,,,,,10,1.5994,1,0,30,30,18,1,5,×,2,5 × 2,neutral,largerFirst,1.5,1.5,10,,,,,,,,
,,,,,,,,,,,,,,,8389,2022-02-24_22h33.58.334,multiplicationStroop,2021.2.3,Win32,59.96282305,,,,,,,,,,,,,,,,,,,,,,,,,,,,,,,,,14,1.2996,1,0,31,31,2,1,2,×,7,2 × 7,neutral,smallerFirst,1.5,1.5,14,,,,,,,,
,,,,,,,,,,,,,,,8389,2022-02-24_22h33.58.334,multiplicationStroop,2021.2.3,Win32,59.96282305,,,,,,,,,,,,,,,,,,,,,,,,,,,,,,,,,27,1.5828,1,0,32,32,0,1,3,×,9,3 × 9,neutral,smallerFirst,1.5,1.5,27,,,,,,,,
,,,,,,,,,,,,,,,8389,2022-02-24_22h33.58.334,multiplicationStroop,2021.2.3,Win32,59.96282305,,,,,,,,,,,,,,,,,,,,,,,,,,,,,,,,,30,1.6161,1,0,33,33,5,1,5,×,6,5 × 6,neutral,smallerFirst,1.5,1.5,30,,,,,,,,
,,,,,,,,,,,,,,,8389,2022-02-24_22h33.58.334,multiplicationStroop,2021.2.3,Win32,59.96282305,,,,,,,,,,,,,,,,,,,,,,,,,,,,,,,,,35,2.0497,1,0,34,34,15,1,7,×,5,7 × 5,neutral,largerFirst,1.5,1.5,35,,,,,,,,
,,,,,,,,,,,,,,,8389,2022-02-24_22h33.58.334,multiplicationStroop,2021.2.3,Win32,59.96282305,,,,,,,,,,,,,,,,,,,,,,,,,,,,,,,,,16,1.6495,1,0,35,35,30,1,4,×,4,4 × 4,neutral,tie,1.5,1.5,16,,,,,,,,
,,,,,,,,,,,,,,,8389,2022-02-24_22h33.58.334,multiplicationStroop,2021.2.3,Win32,59.96282305,,,,,,,,,,,,,,,,,,,,,,,,,,,,,,,,,,,,,,,,,,,,,,,,,,0,3,3,0,1,stimulusFile/mult_blk1.xlsx,,
,,,,,,,,,,,,,,,8389,2022-02-24_22h33.58.334,multiplicationStroop,2021.2.3,Win32,59.96282305,,,,,,,,,,,,,,,,,,,,,,,,,,,,,,,space,1.2515,42,1.544,1,0,0,0,17,1,7,×,6,7 × 6,incongruent,largerFirst,1,2,42,,,,,,,,
,,,,,,,,,,,,,,,8389,2022-02-24_22h33.58.334,multiplicationStroop,2021.2.3,Win32,59.96282305,,,,,,,,,,,,,,,,,,,,,,,,,,,,,,,,,18,1.4326,1,0,1,1,8,1,3,×,6,3 × 6,incongruent,smallerFirst,2,1,18,,,,,,,,
,,,,,,,,,,,,,,,8389,2022-02-24_22h33.58.334,multiplicationStroop,2021.2.3,Win32,59.96282305,,,,,,,,,,,,,,,,,,,,,,,,,,,,,,,,,24,1.4664,1,0,2,2,9,1,3,×,8,3 × 8,incongruent,smallerFirst,2,1,24,,,,,,,,
,,,,,,,,,,,,,,,8389,2022-02-24_22h33.58.334,multiplicationStroop,2021.2.3,Win32,59.96282305,,,,,,,,,,,,,,,,,,,,,,,,,,,,,,,,,6,1.3996,1,0,3,3,11,1,2,×,3,2 × 3,incongruent,smallerFirst,2,1,6,,,,,,,,
,,,,,,,,,,,,,,,8389,2022-02-24_22h33.58.334,multiplicationStroop,2021.2.3,Win32,59.96282305,,,,,,,,,,,,,,,,,,,,,,,,,,,,,,,,,9,1.5494,1,0,4,4,29,1,3,×,3,3 × 3,incongruent,tie,1,2,9,,,,,,,,
,,,,,,,,,,,,,,,8389,2022-02-24_22h33.58.334,multiplicationStroop,2021.2.3,Win32,59.96282305,,,,,,,,,,,,,,,,,,,,,,,,,,,,,,,,,18,1.9318,1,0,5,5,2,1,2,×,9,2 × 9,incongruent,smallerFirst,2,1,18,,,,,,,,
,,,,,,,,,,,,,,,8389,2022-02-24_22h33.58.334,multiplicationStroop,2021.2.3,Win32,59.96282305,,,,,,,,,,,,,,,,,,,,,,,,,,,,,,,,,54,2.3828,1,0,6,6,6,1,6,×,9,6 × 9,incongruent,smallerFirst,2,1,54,,,,,,,,
,,,,,,,,,,,,,,,8389,2022-02-24_22h33.58.334,multiplicationStroop,2021.2.3,Win32,59.96282305,,,,,,,,,,,,,,,,,,,,,,,,,,,,,,,,,81,2.3498,1,0,7,7,35,1,9,×,9,9 × 9,incongruent,tie,1,2,81,,,,,,,,
,,,,,,,,,,,,,,,8389,2022-02-24_22h33.58.334,multiplicationStroop,2021.2.3,Win32,59.96282305,,,,,,,,,,,,,,,,,,,,,,,,,,,,,,,,,45,1.533,1,0,8,8,22,1,9,×,5,9 × 5,incongruent,largerFirst,1,2,45,,,,,,,,
,,,,,,,,,,,,,,,8389,2022-02-24_22h33.58.334,multiplicationStroop,2021.2.3,Win32,59.96282305,,,,,,,,,,,,,,,,,,,,,,,,,,,,,,,,,12,1.3161,1,0,9,9,5,1,3,×,4,3 × 4,incongruent,smallerFirst,2,1,12,,,,,,,,
,,,,,,,,,,,,,,,8389,2022-02-24_22h33.58.334,multiplicationStroop,2021.2.3,Win32,59.96282305,,,,,,,,,,,,,,,,,,,,,,,,,,,,,,,,,24,1.6497,1,0,10,10,20,1,6,×,4,6 × 4,incongruent,largerFirst,1,2,24,,,,,,,,
,,,,,,,,,,,,,,,8389,2022-02-24_22h33.58.334,multiplicationStroop,2021.2.3,Win32,59.96282305,,,,,,,,,,,,,,,,,,,,,,,,,,,,,,,,,35,1.5996,1,0,11,11,12,1,5,×,7,5 × 7,incongruent,smallerFirst,2,1,35,,,,,,,,
,,,,,,,,,,,,,,,8389,2022-02-24_22h33.58.334,multiplicationStroop,2021.2.3,Win32,59.96282305,,,,,,,,,,,,,,,,,,,,,,,,,,,,,,,,,16,1.533,1,0,12,12,30,1,4,×,4,4 × 4,incongruent,tie,1,2,16,,,,,,,,
,,,,,,,,,,,,,,,8389,2022-02-24_22h33.58.334,multiplicationStroop,2021.2.3,Win32,59.96282305,,,,,,,,,,,,,,,,,,,,,,,,,,,,,,,,,28,1.6996,1,0,13,13,16,1,7,×,4,7 × 4,incongruent,largerFirst,1,2,28,,,,,,,,
,,,,,,,,,,,,,,,8389,2022-02-24_22h33.58.334,multiplicationStroop,2021.2.3,Win32,59.96282305,,,,,,,,,,,,,,,,,,,,,,,,,,,,,,,,,36,1.5829,1,0,14,14,15,1,9,×,4,9 × 4,incongruent,largerFirst,1,2,36,,,,,,,,
,,,,,,,,,,,,,,,8389,2022-02-24_22h33.58.334,multiplicationStroop,2021.2.3,Win32,59.96282305,,,,,,,,,,,,,,,,,,,,,,,,,,,,,,,,,26,2.1496,0,0,15,15,32,1,6,×,6,6 × 6,incongruent,tie,1,2,36,,,,,,,,
,,,,,,,,,,,,,,,8389,2022-02-24_22h33.58.334,multiplicationStroop,2021.2.3,Win32,59.96282305,,,,,,,,,,,,,,,,,,,,,,,,,,,,,,,,,12,1.4161,0,0,16,16,28,1,2,×,2,2 × 2,incongruent,tie,1,2,4,,,,,,,,
,,,,,,,,,,,,,,,8389,2022-02-24_22h33.58.334,multiplicationStroop,2021.2.3,Win32,59.96282305,,,,,,,,,,,,,,,,,,,,,,,,,,,,,,,,,49,3.183,1,0,17,17,33,1,7,×,7,7 × 7,incongruent,tie,1,2,49,,,,,,,,
,,,,,,,,,,,,,,,8389,2022-02-24_22h33.58.334,multiplicationStroop,2021.2.3,Win32,59.96282305,,,,,,,,,,,,,,,,,,,,,,,,,,,,,,,,,40,5.7194,1,0,18,18,13,1,5,×,8,5 × 8,incongruent,smallerFirst,2,1,40,,,,,,,,
,,,,,,,,,,,,,,,8389,2022-02-24_22h33.58.334,multiplicationStroop,2021.2.3,Win32,59.96282305,,,,,,,,,,,,,,,,,,,,,,,,,,,,,,,,,72,4.3686,1,0,19,19,0,1,8,×,9,8 × 9,incongruent,smallerFirst,2,1,72,,,,,,,,
,,,,,,,,,,,,,,,8389,2022-02-24_22h33.58.334,multiplicationStroop,2021.2.3,Win32,59.96282305,,,,,,,,,,,,,,,,,,,,,,,,,,,,,,,,,20,1.4845,1,0,20,20,27,1,5,×,4,5 × 4,incongruent,largerFirst,1,2,20,,,,,,,,
,,,,,,,,,,,,,,,8389,2022-02-24_22h33.58.334,multiplicationStroop,2021.2.3,Win32,59.96282305,,,,,,,,,,,,,,,,,,,,,,,,,,,,,,,,,12,1.2497,1,0,21,21,19,1,6,×,2,6 × 2,incongruent,largerFirst,1,2,12,,,,,,,,
,,,,,,,,,,,,,,,8389,2022-02-24_22h33.58.334,multiplicationStroop,2021.2.3,Win32,59.96282305,,,,,,,,,,,,,,,,,,,,,,,,,,,,,,,,,25,1.4828,1,0,22,22,31,1,5,×,5,5 × 5,incongruent,tie,1,2,25,,,,,,,,
,,,,,,,,,,,,,,,8389,2022-02-24_22h33.58.334,multiplicationStroop,2021.2.3,Win32,59.96282305,,,,,,,,,,,,,,,,,,,,,,,,,,,,,,,,,27,1.6662,1,0,23,23,18,1,9,×,3,9 × 3,incongruent,largerFirst,1,2,27,,,,,,,,
,,,,,,,,,,,,,,,8389,2022-02-24_22h33.58.334,multiplicationStroop,2021.2.3,Win32,59.96282305,,,,,,,,,,,,,,,,,,,,,,,,,,,,,,,,,64,1.5328,1,0,24,24,34,1,8,×,8,8 × 8,incongruent,tie,1,2,64,,,,,,,,
,,,,,,,,,,,,,,,8389,2022-02-24_22h33.58.334,multiplicationStroop,2021.2.3,Win32,59.96282305,,,,,,,,,,,,,,,,,,,,,,,,,,,,,,,,,16,1.7664,1,0,25,25,23,1,8,×,2,8 × 2,incongruent,largerFirst,1,2,16,,,,,,,,
,,,,,,,,,,,,,,,8389,2022-02-24_22h33.58.334,multiplicationStroop,2021.2.3,Win32,59.96282305,,,,,,,,,,,,,,,,,,,,,,,,,,,,,,,,,56,5.6163,1,0,26,26,14,1,8,×,7,8 × 7,incongruent,largerFirst,1,2,56,,,,,,,,
,,,,,,,,,,,,,,,8389,2022-02-24_22h33.58.334,multiplicationStroop,2021.2.3,Win32,59.96282305,,,,,,,,,,,,,,,,,,,,,,,,,,,,,,,,,14,1.2679,1,0,27,27,4,1,2,×,7,2 × 7,incongruent,smallerFirst,2,1,14,,,,,,,,
,,,,,,,,,,,,,,,8389,2022-02-24_22h33.58.334,multiplicationStroop,2021.2.3,Win32,59.96282305,,,,,,,,,,,,,,,,,,,,,,,,,,,,,,,,,30,1.433,1,0,28,28,25,1,6,×,5,6 × 5,incongruent,largerFirst,1,2,30,,,,,,,,
,,,,,,,,,,,,,,,8389,2022-02-24_22h33.58.334,multiplicationStroop,2021.2.3,Win32,59.96282305,,,,,,,,,,,,,,,,,,,,,,,,,,,,,,,,,15,1.3162,1,0,29,29,10,1,3,×,5,3 × 5,incongruent,smallerFirst,2,1,15,,,,,,,,
,,,,,,,,,,,,,,,8389,2022-02-24_22h33.58.334,multiplicationStroop,2021.2.3,Win32,59.96282305,,,,,,,,,,,,,,,,,,,,,,,,,,,,,,,,,32,1.9164,1,0,30,30,7,1,4,×,8,4 × 8,incongruent,smallerFirst,2,1,32,,,,,,,,
,,,,,,,,,,,,,,,8389,2022-02-24_22h33.58.334,multiplicationStroop,2021.2.3,Win32,59.96282305,,,,,,,,,,,,,,,,,,,,,,,,,,,,,,,,,21,1.3497,1,0,31,31,26,1,7,×,3,7 × 3,incongruent,largerFirst,1,2,21,,,,,,,,
,,,,,,,,,,,,,,,8389,2022-02-24_22h33.58.334,multiplicationStroop,2021.2.3,Win32,59.96282305,,,,,,,,,,,,,,,,,,,,,,,,,,,,,,,,,10,1.9496,1,0,32,32,21,1,5,×,2,5 × 2,incongruent,largerFirst,1,2,10,,,,,,,,
,,,,,,,,,,,,,,,8389,2022-02-24_22h33.58.334,multiplicationStroop,2021.2.3,Win32,59.96282305,,,,,,,,,,,,,,,,,,,,,,,,,,,,,,,,,63,2.1661,1,0,33,33,3,1,7,×,9,7 × 9,incongruent,smallerFirst,2,1,63,,,,,,,,
,,,,,,,,,,,,,,,8389,2022-02-24_22h33.58.334,multiplicationStroop,2021.2.3,Win32,59.96282305,,,,,,,,,,,,,,,,,,,,,,,,,,,,,,,,,8,1.3996,1,0,34,34,24,1,4,×,2,4 × 2,incongruent,largerFirst,1,2,8,,,,,,,,
,,,,,,,,,,,,,,,8389,2022-02-24_22h33.58.334,multiplicationStroop,2021.2.3,Win32,59.96282305,,,,,,,,,,,,,,,,,,,,,,,,,,,,,,,,,48,2.6996,1,0,35,35,1,1,6,×,8,6 × 8,incongruent,smallerFirst,2,1,48,,,,,,,,
,,,,,,,,,,,,,,,8389,2022-02-24_22h33.58.334,multiplicationStroop,2021.2.3,Win32,59.96282305,,,,,,,,,,,,,,,,,,,,,,,,,,,,,,,,,,,,,,,,,,,,,,,,,,0,4,4,5,1,stimulusFile/mult_blk6_INcongruent.xlsx,,
,,,,,,,,,,,,,,,8389,2022-02-24_22h33.58.334,multiplicationStroop,2021.2.3,Win32,59.96282305,,,,,,,,,,,,,,,,,,,,,,,,,,,,,,,space,18.9374,35,2.4853,1,0,0,0,1,1,5,×,7,5 × 7,neutral,smallerFirst,1.5,1.5,35,,,,,,,,
,,,,,,,,,,,,,,,8389,2022-02-24_22h33.58.334,multiplicationStroop,2021.2.3,Win32,59.96282305,,,,,,,,,,,,,,,,,,,,,,,,,,,,,,,,,14,1.2162,1,0,1,1,16,1,7,×,2,7 × 2,neutral,largerFirst,1.5,1.5,14,,,,,,,,
,,,,,,,,,,,,,,,8389,2022-02-24_22h33.58.334,multiplicationStroop,2021.2.3,Win32,59.96282305,,,,,,,,,,,,,,,,,,,,,,,,,,,,,,,,,25,1.4496,1,0,2,2,31,1,5,×,5,5 × 5,neutral,tie,1.5,1.5,25,,,,,,,,
,,,,,,,,,,,,,,,8389,2022-02-24_22h33.58.334,multiplicationStroop,2021.2.3,Win32,59.96282305,,,,,,,,,,,,,,,,,,,,,,,,,,,,,,,,,28,2.333,1,0,3,3,17,1,7,×,4,7 × 4,neutral,largerFirst,1.5,1.5,28,,,,,,,,
,,,,,,,,,,,,,,,8389,2022-02-24_22h33.58.334,multiplicationStroop,2021.2.3,Win32,59.96282305,,,,,,,,,,,,,,,,,,,,,,,,,,,,,,,,,24,2.2161,1,0,4,4,22,1,8,×,3,8 × 3,neutral,largerFirst,1.5,1.5,24,,,,,,,,
,,,,,,,,,,,,,,,8389,2022-02-24_22h33.58.334,multiplicationStroop,2021.2.3,Win32,59.96282305,,,,,,,,,,,,,,,,,,,,,,,,,,,,,,,,,48,1.7328,1,0,5,5,15,1,8,×,6,8 × 6,neutral,largerFirst,1.5,1.5,48,,,,,,,,
,,,,,,,,,,,,,,,8389,2022-02-24_22h33.58.334,multiplicationStroop,2021.2.3,Win32,59.96282305,,,,,,,,,,,,,,,,,,,,,,,,,,,,,,,,,20,1.3164,1,0,6,6,20,1,5,×,4,5 × 4,neutral,largerFirst,1.5,1.5,20,,,,,,,,
,,,,,,,,,,,,,,,8389,2022-02-24_22h33.58.334,multiplicationStroop,2021.2.3,Win32,59.96282305,,,,,,,,,,,,,,,,,,,,,,,,,,,,,,,,,6,9.2002,1,0,7,7,26,1,3,×,2,3 × 2,neutral,largerFirst,1.5,1.5,6,,,,,,,,
,,,,,,,,,,,,,,,8389,2022-02-24_22h33.58.334,multiplicationStroop,2021.2.3,Win32,59.96282305,,,,,,,,,,,,,,,,,,,,,,,,,,,,,,,,,18,1.3513,1,0,8,8,18,1,9,×,2,9 × 2,neutral,largerFirst,1.5,1.5,18,,,,,,,,
,,,,,,,,,,,,,,,8389,2022-02-24_22h33.58.334,multiplicationStroop,2021.2.3,Win32,59.96282305,,,,,,,,,,,,,,,,,,,,,,,,,,,,,,,,,56,2.8163,1,0,9,9,9,1,7,×,8,7 × 8,neutral,smallerFirst,1.5,1.5,56,,,,,,,,
,,,,,,,,,,,,,,,8389,2022-02-24_22h33.58.334,multiplicationStroop,2021.2.3,Win32,59.96282305,,,,,,,,,,,,,,,,,,,,,,,,,,,,,,,,,16,1.718,1,0,10,10,13,1,2,×,8,2 × 8,neutral,smallerFirst,1.5,1.5,16,,,,,,,,
,,,,,,,,,,,,,,,8389,2022-02-24_22h33.58.334,multiplicationStroop,2021.2.3,Win32,59.96282305,,,,,,,,,,,,,,,,,,,,,,,,,,,,,,,,,18,2.6329,1,0,11,11,0,1,3,×,6,3 × 6,neutral,smallerFirst,1.5,1.5,18,,,,,,,,
,,,,,,,,,,,,,,,8389,2022-02-24_22h33.58.334,multiplicationStroop,2021.2.3,Win32,59.96282305,,,,,,,,,,,,,,,,,,,,,,,,,,,,,,,,,21,1.3176,1,0,12,12,8,1,3,×,7,3 × 7,neutral,smallerFirst,1.5,1.5,21,,,,,,,,
,,,,,,,,,,,,,,,8389,2022-02-24_22h33.58.334,multiplicationStroop,2021.2.3,Win32,59.96282305,,,,,,,,,,,,,,,,,,,,,,,,,,,,,,,,,24,1.2999,1,0,13,13,2,1,4,×,6,4 × 6,neutral,smallerFirst,1.5,1.5,24,,,,,,,,
,,,,,,,,,,,,,,,8389,2022-02-24_22h33.58.334,multiplicationStroop,2021.2.3,Win32,59.96282305,,,,,,,,,,,,,,,,,,,,,,,,,,,,,,,,,12,1.116,1,0,14,14,25,1,6,×,2,6 × 2,neutral,largerFirst,1.5,1.5,12,,,,,,,,
,,,,,,,,,,,,,,,8389,2022-02-24_22h33.58.334,multiplicationStroop,2021.2.3,Win32,59.96282305,,,,,,,,,,,,,,,,,,,,,,,,,,,,,,,,,40,1.3499,1,0,15,15,24,1,8,×,5,8 × 5,neutral,largerFirst,1.5,1.5,40,,,,,,,,
,,,,,,,,,,,,,,,8389,2022-02-24_22h33.58.334,multiplicationStroop,2021.2.3,Win32,59.96282305,,,,,,,,,,,,,,,,,,,,,,,,,,,,,,,,,32,2.1996,1,0,16,16,23,1,8,×,4,8 × 4,neutral,largerFirst,1.5,1.5,32,,,,,,,,
,,,,,,,,,,,,,,,8389,2022-02-24_22h33.58.334,multiplicationStroop,2021.2.3,Win32,59.96282305,,,,,,,,,,,,,,,,,,,,,,,,,,,,,,,,,7,1.5662,0,0,17,17,29,1,3,×,3,3 × 3,neutral,tie,1.5,1.5,9,,,,,,,,
,,,,,,,,,,,,,,,8389,2022-02-24_22h33.58.334,multiplicationStroop,2021.2.3,Win32,59.96282305,,,,,,,,,,,,,,,,,,,,,,,,,,,,,,,,,64,1.6496,1,0,18,18,34,1,8,×,8,8 × 8,neutral,tie,1.5,1.5,64,,,,,,,,
,,,,,,,,,,,,,,,8389,2022-02-24_22h33.58.334,multiplicationStroop,2021.2.3,Win32,59.96282305,,,,,,,,,,,,,,,,,,,,,,,,,,,,,,,,,16,1.7495,1,0,19,19,30,1,4,×,4,4 × 4,neutral,tie,1.5,1.5,16,,,,,,,,
,,,,,,,,,,,,,,,8389,2022-02-24_22h33.58.334,multiplicationStroop,2021.2.3,Win32,59.96282305,,,,,,,,,,,,,,,,,,,,,,,,,,,,,,,,,8,1.4162,1,0,20,20,3,1,2,×,4,2 × 4,neutral,smallerFirst,1.5,1.5,8,,,,,,,,
,,,,,,,,,,,,,,,8389,2022-02-24_22h33.58.334,multiplicationStroop,2021.2.3,Win32,59.96282305,,,,,,,,,,,,,,,,,,,,,,,,,,,,,,,,,63,3.4996,1,0,21,21,12,1,7,×,9,7 × 9,neutral,smallerFirst,1.5,1.5,63,,,,,,,,
,,,,,,,,,,,,,,,8389,2022-02-24_22h33.58.334,multiplicationStroop,2021.2.3,Win32,59.96282305,,,,,,,,,,,,,,,,,,,,,,,,,,,,,,,,,27,2.0999,1,0,22,22,14,1,9,×,3,9 × 3,neutral,largerFirst,1.5,1.5,27,,,,,,,,
,,,,,,,,,,,,,,,8389,2022-02-24_22h33.58.334,multiplicationStroop,2021.2.3,Win32,59.96282305,,,,,,,,,,,,,,,,,,,,,,,,,,,,,,,,,36,1.5329,1,0,23,23,27,1,9,×,4,9 × 4,neutral,largerFirst,1.5,1.5,36,,,,,,,,
,,,,,,,,,,,,,,,8389,2022-02-24_22h33.58.334,multiplicationStroop,2021.2.3,Win32,59.96282305,,,,,,,,,,,,,,,,,,,,,,,,,,,,,,,,,4,1.2995,1,0,24,24,28,1,2,×,2,2 × 2,neutral,tie,1.5,1.5,4,,,,,,,,
,,,,,,,,,,,,,,,8389,2022-02-24_22h33.58.334,multiplicationStroop,2021.2.3,Win32,59.96282305,,,,,,,,,,,,,,,,,,,,,,,,,,,,,,,,,81,2.1996,1,0,25,25,35,1,9,×,9,9 × 9,neutral,tie,1.5,1.5,81,,,,,,,,
,,,,,,,,,,,,,,,8389,2022-02-24_22h33.58.334,multiplicationStroop,2021.2.3,Win32,59.96282305,,,,,,,,,,,,,,,,,,,,,,,,,,,,,,,,,12,1.333,1,0,26,26,21,1,4,×,3,4 × 3,neutral,largerFirst,1.5,1.5,12,,,,,,,,
,,,,,,,,,,,,,,,8389,2022-02-24_22h33.58.334,multiplicationStroop,2021.2.3,Win32,59.96282305,,,,,,,,,,,,,,,,,,,,,,,,,,,,,,,,,42,1.766,1,0,27,27,6,1,6,×,7,6 × 7,neutral,smallerFirst,1.5,1.5,42,,,,,,,,
,,,,,,,,,,,,,,,8389,2022-02-24_22h33.58.334,multiplicationStroop,2021.2.3,Win32,59.96282305,,,,,,,,,,,,,,,,,,,,,,,,,,,,,,,,,15,1.3498,1,0,28,28,5,1,3,×,5,3 × 5,neutral,smallerFirst,1.5,1.5,15,,,,,,,,
,,,,,,,,,,,,,,,8389,2022-02-24_22h33.58.334,multiplicationStroop,2021.2.3,Win32,59.96282305,,,,,,,,,,,,,,,,,,,,,,,,,,,,,,,,,30,1.4161,1,0,29,29,19,1,6,×,5,6 × 5,neutral,largerFirst,1.5,1.5,30,,,,,,,,
,,,,,,,,,,,,,,,8389,2022-02-24_22h33.58.334,multiplicationStroop,2021.2.3,Win32,59.96282305,,,,,,,,,,,,,,,,,,,,,,,,,,,,,,,,,36,1.8661,1,0,30,30,32,1,6,×,6,6 × 6,neutral,tie,1.5,1.5,36,,,,,,,,
,,,,,,,,,,,,,,,8389,2022-02-24_22h33.58.334,multiplicationStroop,2021.2.3,Win32,59.96282305,,,,,,,,,,,,,,,,,,,,,,,,,,,,,,,,,49,3.6663,1,0,31,31,33,1,7,×,7,7 × 7,neutral,tie,1.5,1.5,49,,,,,,,,
,,,,,,,,,,,,,,,8389,2022-02-24_22h33.58.334,multiplicationStroop,2021.2.3,Win32,59.96282305,,,,,,,,,,,,,,,,,,,,,,,,,,,,,,,,,45,2.2853,1,0,32,32,10,1,5,×,9,5 × 9,neutral,smallerFirst,1.5,1.5,45,,,,,,,,
,,,,,,,,,,,,,,,8389,2022-02-24_22h33.58.334,multiplicationStroop,2021.2.3,Win32,59.96282305,,,,,,,,,,,,,,,,,,,,,,,,,,,,,,,,,72,3.1328,1,0,33,33,11,1,8,×,9,8 × 9,neutral,smallerFirst,1.5,1.5,72,,,,,,,,
,,,,,,,,,,,,,,,8389,2022-02-24_22h33.58.334,multiplicationStroop,2021.2.3,Win32,59.96282305,,,,,,,,,,,,,,,,,,,,,,,,,,,,,,,,,10,2.1166,1,0,34,34,4,1,2,×,5,2 × 5,neutral,smallerFirst,1.5,1.5,10,,,,,,,,
,,,,,,,,,,,,,,,8389,2022-02-24_22h33.58.334,multiplicationStroop,2021.2.3,Win32,59.96282305,,,,,,,,,,,,,,,,,,,,,,,,,,,,,,,,,54,2.5163,1,0,35,35,7,1,6,×,9,6 × 9,neutral,smallerFirst,1.5,1.5,54,,,,,,,,
,,,,,,,,,,,,,,,8389,2022-02-24_22h33.58.334,multiplicationStroop,2021.2.3,Win32,59.96282305,,,,,,,,,,,,,,,,,,,,,,,,,,,,,,,,,,,,,,,,,,,,,,,,,,0,5,5,1,1,stimulusFile/mult_blk2.xlsx,,
,,,,,,,,,,,,,,,8389,2022-02-24_22h33.58.334,multiplicationStroop,2021.2.3,Win32,59.96282305,,,,,,,,,,,,,,,,,,,,,,,,,,,,,,,,,,,,,,,,,,,,,,,,,,,,,,,,space,136.6074