windowSize,welcomeResp.keys,welcomeResp.rt,typingInstr_resp.keys,typingInstr_resp.rt,TypedAnswer1,typingRT1,typingCorr,roundNo.thisRepN,roundNo.thisTrialN,roundNo.thisN,roundNo.thisIndex,roundNo.ran,typedStimulus,participant,date,expName,psychopyVersion,OS,frameRate,typingTrials.thisRepN,typingTrials.thisTrialN,typingTrials.thisN,typingTrials.thisIndex,typingTrials.ran,typingStimulusFile,roundNo,trialIstr_resp.keys,trialIstr_resp.rt,TypT_answer,typingRT,multiplyCorr,trials_presentation.thisRepN,trials_presentation.thisTrialN,trials_presentation.thisN,trials_presentation.thisIndex,trials_presentation.ran,problem,answers,exitkey_resp.keys,exitkey_resp.rt
"[1536,754]",space,12.4352,space,6e-4,54,4.7312,1,0,0,0,25,1,54,681,2022-02-05_21h06.20.015,timed_fluency,2021.2.3,Win32,60.72382803,NA,NA,NA,NA,NA,NA,NA,NA,NA,NA,NA,NA,NA,NA,NA,NA,NA,NA,NA,NA,NA
NA,NA,NA,NA,NA,48,1.8315,1,0,1,1,23,1,48,681,2022-02-05_21h06.20.015,timed_fluency,2021.2.3,Win32,60.72382803,NA,NA,NA,NA,NA,NA,NA,NA,NA,NA,NA,NA,NA,NA,NA,NA,NA,NA,NA,NA,NA
NA,NA,NA,NA,NA,14,8.0423,1,0,2,2,6,1,14,681,2022-02-05_21h06.20.015,timed_fluency,2021.2.3,Win32,60.72382803,NA,NA,NA,NA,NA,NA,NA,NA,NA,NA,NA,NA,NA,NA,NA,NA,NA,NA,NA,NA,NA
NA,NA,NA,NA,NA,18,1.589,1,0,3,3,9,1,18,681,2022-02-05_21h06.20.015,timed_fluency,2021.2.3,Win32,60.72382803,NA,NA,NA,NA,NA,NA,NA,NA,NA,NA,NA,NA,NA,NA,NA,NA,NA,NA,NA,NA,NA
NA,NA,NA,NA,NA,27,2.0306,1,0,4,4,14,1,27,681,2022-02-05_21h06.20.015,timed_fluency,2021.2.3,Win32,60.72382803,NA,NA,NA,NA,NA,NA,NA,NA,NA,NA,NA,NA,NA,NA,NA,NA,NA,NA,NA,NA,NA
NA,NA,NA,NA,NA,15,1.5157,1,0,5,5,7,1,15,681,2022-02-05_21h06.20.015,timed_fluency,2021.2.3,Win32,60.72382803,NA,NA,NA,NA,NA,NA,NA,NA,NA,NA,NA,NA,NA,NA,NA,NA,NA,NA,NA,NA,NA
NA,NA,NA,NA,NA,24,1.347,1,0,6,6,12,1,24,681,2022-02-05_21h06.20.015,timed_fluency,2021.2.3,Win32,60.72382803,NA,NA,NA,NA,NA,NA,NA,NA,NA,NA,NA,NA,NA,NA,NA,NA,NA,NA,NA,NA,NA
NA,NA,NA,NA,NA,36,2.3802,1,0,7,7,19,1,36,681,2022-02-05_21h06.20.015,timed_fluency,2021.2.3,Win32,60.72382803,NA,NA,NA,NA,NA,NA,NA,NA,NA,NA,NA,NA,NA,NA,NA,NA,NA,NA,NA,NA,NA
NA,NA,NA,NA,NA,64,1.9313,1,0,8,8,28,1,64,681,2022-02-05_21h06.20.015,timed_fluency,2021.2.3,Win32,60.72382803,NA,NA,NA,NA,NA,NA,NA,NA,NA,NA,NA,NA,NA,NA,NA,NA,NA,NA,NA,NA,NA
NA,NA,NA,NA,NA,81,1.8641,1,0,9,9,30,1,81,681,2022-02-05_21h06.20.015,timed_fluency,2021.2.3,Win32,60.72382803,NA,NA,NA,NA,NA,NA,NA,NA,NA,NA,NA,NA,NA,NA,NA,NA,NA,NA,NA,NA,NA
NA,NA,NA,NA,NA,63,1.9968,1,0,10,10,27,1,63,681,2022-02-05_21h06.20.015,timed_fluency,2021.2.3,Win32,60.72382803,NA,NA,NA,NA,NA,NA,NA,NA,NA,NA,NA,NA,NA,NA,NA,NA,NA,NA,NA,NA,NA
NA,NA,NA,NA,NA,10,1.5153,1,0,11,11,4,1,10,681,2022-02-05_21h06.20.015,timed_fluency,2021.2.3,Win32,60.72382803,NA,NA,NA,NA,NA,NA,NA,NA,NA,NA,NA,NA,NA,NA,NA,NA,NA,NA,NA,NA,NA
NA,NA,NA,NA,NA,32,1.5981,1,0,12,12,17,1,32,681,2022-02-05_21h06.20.015,timed_fluency,2021.2.3,Win32,60.72382803,NA,NA,NA,NA,NA,NA,NA,NA,NA,NA,NA,NA,NA,NA,NA,NA,NA,NA,NA,NA,NA
NA,NA,NA,NA,NA,8,1.7143,1,0,13,13,2,1,8,681,2022-02-05_21h06.20.015,timed_fluency,2021.2.3,Win32,60.72382803,NA,NA,NA,NA,NA,NA,NA,NA,NA,NA,NA,NA,NA,NA,NA,NA,NA,NA,NA,NA,NA
NA,NA,NA,NA,NA,42,2.2301,1,0,14,14,21,1,42,681,2022-02-05_21h06.20.015,timed_fluency,2021.2.3,Win32,60.72382803,NA,NA,NA,NA,NA,NA,NA,NA,NA,NA,NA,NA,NA,NA,NA,NA,NA,NA,NA,NA,NA
NA,NA,NA,NA,NA,35,1.9478,1,0,15,15,18,1,35,681,2022-02-05_21h06.20.015,timed_fluency,2021.2.3,Win32,60.72382803,NA,NA,NA,NA,NA,NA,NA,NA,NA,NA,NA,NA,NA,NA,NA,NA,NA,NA,NA,NA,NA
NA,NA,NA,NA,NA,49,2.1638,1,0,16,16,24,1,49,681,2022-02-05_21h06.20.015,timed_fluency,2021.2.3,Win32,60.72382803,NA,NA,NA,NA,NA,NA,NA,NA,NA,NA,NA,NA,NA,NA,NA,NA,NA,NA,NA,NA,NA
NA,NA,NA,NA,NA,9,1.4308,1,0,17,17,3,1,9,681,2022-02-05_21h06.20.015,timed_fluency,2021.2.3,Win32,60.72382803,NA,NA,NA,NA,NA,NA,NA,NA,NA,NA,NA,NA,NA,NA,NA,NA,NA,NA,NA,NA,NA
NA,NA,NA,NA,NA,56,1.4313,1,0,18,18,26,1,56,681,2022-02-05_21h06.20.015,timed_fluency,2021.2.3,Win32,60.72382803,NA,NA,NA,NA,NA,NA,NA,NA,NA,NA,NA,NA,NA,NA,NA,NA,NA,NA,NA,NA,NA
NA,NA,NA,NA,NA,16,1.5819,1,0,19,19,8,1,16,681,2022-02-05_21h06.20.015,timed_fluency,2021.2.3,Win32,60.72382803,NA,NA,NA,NA,NA,NA,NA,NA,NA,NA,NA,NA,NA,NA,NA,NA,NA,NA,NA,NA,NA
NA,NA,NA,NA,NA,4,1.2311,1,0,20,20,0,1,4,681,2022-02-05_21h06.20.015,timed_fluency,2021.2.3,Win32,60.72382803,NA,NA,NA,NA,NA,NA,NA,NA,NA,NA,NA,NA,NA,NA,NA,NA,NA,NA,NA,NA,NA
NA,NA,NA,NA,NA,40,1.8481,1,0,21,21,20,1,40,681,2022-02-05_21h06.20.015,timed_fluency,2021.2.3,Win32,60.72382803,NA,NA,NA,NA,NA,NA,NA,NA,NA,NA,NA,NA,NA,NA,NA,NA,NA,NA,NA,NA,NA
NA,NA,NA,NA,NA,30,1.9471,1,0,22,22,16,1,30,681,2022-02-05_21h06.20.015,timed_fluency,2021.2.3,Win32,60.72382803,NA,NA,NA,NA,NA,NA,NA,NA,NA,NA,NA,NA,NA,NA,NA,NA,NA,NA,NA,NA,NA
NA,NA,NA,NA,NA,12,1.2653,1,0,23,23,5,1,12,681,2022-02-05_21h06.20.015,timed_fluency,2021.2.3,Win32,60.72382803,NA,NA,NA,NA,NA,NA,NA,NA,NA,NA,NA,NA,NA,NA,NA,NA,NA,NA,NA,NA,NA
NA,NA,NA,NA,NA,6,1.4825,1,0,24,24,1,1,6,681,2022-02-05_21h06.20.015,timed_fluency,2021.2.3,Win32,60.72382803,NA,NA,NA,NA,NA,NA,NA,NA,NA,NA,NA,NA,NA,NA,NA,NA,NA,NA,NA,NA,NA
NA,NA,NA,NA,NA,45,1.3297,1,0,25,25,22,1,45,681,2022-02-05_21h06.20.015,timed_fluency,2021.2.3,Win32,60.72382803,NA,NA,NA,NA,NA,NA,NA,NA,NA,NA,NA,NA,NA,NA,NA,NA,NA,NA,NA,NA,NA
NA,NA,NA,NA,NA,28,1.6142,1,0,26,26,15,1,28,681,2022-02-05_21h06.20.015,timed_fluency,2021.2.3,Win32,60.72382803,NA,NA,NA,NA,NA,NA,NA,NA,NA,NA,NA,NA,NA,NA,NA,NA,NA,NA,NA,NA,NA
NA,NA,NA,NA,NA,21,1.5324,1,0,27,27,11,1,21,681,2022-02-05_21h06.20.015,timed_fluency,2021.2.3,Win32,60.72382803,NA,NA,NA,NA,NA,NA,NA,NA,NA,NA,NA,NA,NA,NA,NA,NA,NA,NA,NA,NA,NA
NA,NA,NA,NA,NA,72,1.7966,1,0,28,28,29,1,72,681,2022-02-05_21h06.20.015,timed_fluency,2021.2.3,Win32,60.72382803,NA,NA,NA,NA,NA,NA,NA,NA,NA,NA,NA,NA,NA,NA,NA,NA,NA,NA,NA,NA,NA
NA,NA,NA,NA,NA,25,1.3824,1,0,29,29,13,1,25,681,2022-02-05_21h06.20.015,timed_fluency,2021.2.3,Win32,60.72382803,NA,NA,NA,NA,NA,NA,NA,NA,NA,NA,NA,NA,NA,NA,NA,NA,NA,NA,NA,NA,NA
NA,NA,NA,NA,NA,20,1.4812,1,0,30,30,10,1,20,681,2022-02-05_21h06.20.015,timed_fluency,2021.2.3,Win32,60.72382803,NA,NA,NA,NA,NA,NA,NA,NA,NA,NA,NA,NA,NA,NA,NA,NA,NA,NA,NA,NA,NA
NA,NA,NA,NA,NA,NA,NA,NA,NA,NA,NA,NA,NA,NA,681,2022-02-05_21h06.20.015,timed_fluency,2021.2.3,Win32,60.72382803,0,0,0,0,1,typing.xlsx,1,NA,NA,NA,NA,NA,NA,NA,NA,NA,NA,NA,NA,NA,NA
NA,NA,NA,NA,NA,32,2.0003,1,0,0,0,17,1,32,681,2022-02-05_21h06.20.015,timed_fluency,2021.2.3,Win32,60.72382803,NA,NA,NA,NA,NA,NA,NA,NA,NA,NA,NA,NA,NA,NA,NA,NA,NA,NA,NA,NA,NA
NA,NA,NA,NA,NA,25,1.6819,1,0,1,1,13,1,25,681,2022-02-05_21h06.20.015,timed_fluency,2021.2.3,Win32,60.72382803,NA,NA,NA,NA,NA,NA,NA,NA,NA,NA,NA,NA,NA,NA,NA,NA,NA,NA,NA,NA,NA
NA,NA,NA,NA,NA,72,2.4963,1,0,2,2,29,1,72,681,2022-02-05_21h06.20.015,timed_fluency,2021.2.3,Win32,60.72382803,NA,NA,NA,NA,NA,NA,NA,NA,NA,NA,NA,NA,NA,NA,NA,NA,NA,NA,NA,NA,NA
NA,NA,NA,NA,NA,40,2.7691,1,0,3,3,20,1,40,681,2022-02-05_21h06.20.015,timed_fluency,2021.2.3,Win32,60.72382803,NA,NA,NA,NA,NA,NA,NA,NA,NA,NA,NA,NA,NA,NA,NA,NA,NA,NA,NA,NA,NA
NA,NA,NA,NA,NA,42,1.5141,1,0,4,4,21,1,42,681,2022-02-05_21h06.20.015,timed_fluency,2021.2.3,Win32,60.72382803,NA,NA,NA,NA,NA,NA,NA,NA,NA,NA,NA,NA,NA,NA,NA,NA,NA,NA,NA,NA,NA
NA,NA,NA,NA,NA,63,1.8484,1,0,5,5,27,1,63,681,2022-02-05_21h06.20.015,timed_fluency,2021.2.3,Win32,60.72382803,NA,NA,NA,NA,NA,NA,NA,NA,NA,NA,NA,NA,NA,NA,NA,NA,NA,NA,NA,NA,NA
NA,NA,NA,NA,NA,14,1.3151,1,0,6,6,6,1,14,681,2022-02-05_21h06.20.015,timed_fluency,2021.2.3,Win32,60.72382803,NA,NA,NA,NA,NA,NA,NA,NA,NA,NA,NA,NA,NA,NA,NA,NA,NA,NA,NA,NA,NA
NA,NA,NA,NA,NA,30,2.0633,1,0,7,7,16,1,30,681,2022-02-05_21h06.20.015,timed_fluency,2021.2.3,Win32,60.72382803,NA,NA,NA,NA,NA,NA,NA,NA,NA,NA,NA,NA,NA,NA,NA,NA,NA,NA,NA,NA,NA
NA,NA,NA,NA,NA,54,1.4654,1,0,8,8,25,1,54,681,2022-02-05_21h06.20.015,timed_fluency,2021.2.3,Win32,60.72382803,NA,NA,NA,NA,NA,NA,NA,NA,NA,NA,NA,NA,NA,NA,NA,NA,NA,NA,NA,NA,NA
NA,NA,NA,NA,NA,8,1.3975,1,0,9,9,2,1,8,681,2022-02-05_21h06.20.015,timed_fluency,2021.2.3,Win32,60.72382803,NA,NA,NA,NA,NA,NA,NA,NA,NA,NA,NA,NA,NA,NA,NA,NA,NA,NA,NA,NA,NA
NA,NA,NA,NA,NA,27,1.5978,1,0,10,10,14,1,27,681,2022-02-05_21h06.20.015,timed_fluency,2021.2.3,Win32,60.72382803,NA,NA,NA,NA,NA,NA,NA,NA,NA,NA,NA,NA,NA,NA,NA,NA,NA,NA,NA,NA,NA
NA,NA,NA,NA,NA,49,1.8144,1,0,11,11,24,1,49,681,2022-02-05_21h06.20.015,timed_fluency,2021.2.3,Win32,60.72382803,NA,NA,NA,NA,NA,NA,NA,NA,NA,NA,NA,NA,NA,NA,NA,NA,NA,NA,NA,NA,NA
NA,NA,NA,NA,NA,18,1.732,1,0,12,12,9,1,18,681,2022-02-05_21h06.20.015,timed_fluency,2021.2.3,Win32,60.72382803,NA,NA,NA,NA,NA,NA,NA,NA,NA,NA,NA,NA,NA,NA,NA,NA,NA,NA,NA,NA,NA
NA,NA,NA,NA,NA,56,1.3966,1,0,13,13,26,1,56,681,2022-02-05_21h06.20.015,timed_fluency,2021.2.3,Win32,60.72382803,NA,NA,NA,NA,NA,NA,NA,NA,NA,NA,NA,NA,NA,NA,NA,NA,NA,NA,NA,NA,NA
NA,NA,NA,NA,NA,20,2.7295,1,0,14,14,10,1,20,681,2022-02-05_21h06.20.015,timed_fluency,2021.2.3,Win32,60.72382803,NA,NA,NA,NA,NA,NA,NA,NA,NA,NA,NA,NA,NA,NA,NA,NA,NA,NA,NA,NA,NA
NA,NA,NA,NA,NA,10,1.4058,1,0,15,15,4,1,10,681,2022-02-05_21h06.20.015,timed_fluency,2021.2.3,Win32,60.72382803,NA,NA,NA,NA,NA,NA,NA,NA,NA,NA,NA,NA,NA,NA,NA,NA,NA,NA,NA,NA,NA
NA,NA,NA,NA,NA,2,1.4975,0,0,16,16,12,1,24,681,2022-02-05_21h06.20.015,timed_fluency,2021.2.3,Win32,60.72382803,NA,NA,NA,NA,NA,NA,NA,NA,NA,NA,NA,NA,NA,NA,NA,NA,NA,NA,NA,NA,NA
NA,NA,NA,NA,NA,9,1.6807,1,0,17,17,3,1,9,681,2022-02-05_21h06.20.015,timed_fluency,2021.2.3,Win32,60.72382803,NA,NA,NA,NA,NA,NA,NA,NA,NA,NA,NA,NA,NA,NA,NA,NA,NA,NA,NA,NA,NA
NA,NA,NA,NA,NA,15,1.5311,1,0,18,18,7,1,15,681,2022-02-05_21h06.20.015,timed_fluency,2021.2.3,Win32,60.72382803,NA,NA,NA,NA,NA,NA,NA,NA,NA,NA,NA,NA,NA,NA,NA,NA,NA,NA,NA,NA,NA
NA,NA,NA,NA,NA,6,1.15,1,0,19,19,1,1,6,681,2022-02-05_21h06.20.015,timed_fluency,2021.2.3,Win32,60.72382803,NA,NA,NA,NA,NA,NA,NA,NA,NA,NA,NA,NA,NA,NA,NA,NA,NA,NA,NA,NA,NA
NA,NA,NA,NA,NA,64,1.5792,1,0,20,20,28,1,64,681,2022-02-05_21h06.20.015,timed_fluency,2021.2.3,Win32,60.72382803,NA,NA,NA,NA,NA,NA,NA,NA,NA,NA,NA,NA,NA,NA,NA,NA,NA,NA,NA,NA,NA
NA,NA,NA,NA,NA,4,1.1315,1,0,21,21,0,1,4,681,2022-02-05_21h06.20.015,timed_fluency,2021.2.3,Win32,60.72382803,NA,NA,NA,NA,NA,NA,NA,NA,NA,NA,NA,NA,NA,NA,NA,NA,NA,NA,NA,NA,NA
NA,NA,NA,NA,NA,12,1.1834,1,0,22,22,5,1,12,681,2022-02-05_21h06.20.015,timed_fluency,2021.2.3,Win32,60.72382803,NA,NA,NA,NA,NA,NA,NA,NA,NA,NA,NA,NA,NA,NA,NA,NA,NA,NA,NA,NA,NA
NA,NA,NA,NA,NA,45,1.3968,1,0,23,23,22,1,45,681,2022-02-05_21h06.20.015,timed_fluency,2021.2.3,Win32,60.72382803,NA,NA,NA,NA,NA,NA,NA,NA,NA,NA,NA,NA,NA,NA,NA,NA,NA,NA,NA,NA,NA
NA,NA,NA,NA,NA,28,1.5313,0,0,24,24,23,1,48,681,2022-02-05_21h06.20.015,timed_fluency,2021.2.3,Win32,60.72382803,NA,NA,NA,NA,NA,NA,NA,NA,NA,NA,NA,NA,NA,NA,NA,NA,NA,NA,NA,NA,NA
NA,NA,NA,NA,NA,81,2.3972,1,0,25,25,30,1,81,681,2022-02-05_21h06.20.015,timed_fluency,2021.2.3,Win32,60.72382803,NA,NA,NA,NA,NA,NA,NA,NA,NA,NA,NA,NA,NA,NA,NA,NA,NA,NA,NA,NA,NA
NA,NA,NA,NA,NA,28,1.614,1,0,26,26,15,1,28,681,2022-02-05_21h06.20.015,timed_fluency,2021.2.3,Win32,60.72382803,NA,NA,NA,NA,NA,NA,NA,NA,NA,NA,NA,NA,NA,NA,NA,NA,NA,NA,NA,NA,NA
NA,NA,NA,NA,NA,16,1.5646,1,0,27,27,8,1,16,681,2022-02-05_21h06.20.015,timed_fluency,2021.2.3,Win32,60.72382803,NA,NA,NA,NA,NA,NA,NA,NA,NA,NA,NA,NA,NA,NA,NA,NA,NA,NA,NA,NA,NA
NA,NA,NA,NA,NA,36,1.8646,1,0,28,28,19,1,36,681,2022-02-05_21h06.20.015,timed_fluency,2021.2.3,Win32,60.72382803,NA,NA,NA,NA,NA,NA,NA,NA,NA,NA,NA,NA,NA,NA,NA,NA,NA,NA,NA,NA,NA
NA,NA,NA,NA,NA,35,1.4303,1,0,29,29,18,1,35,681,2022-02-05_21h06.20.015,timed_fluency,2021.2.3,Win32,60.72382803,NA,NA,NA,NA,NA,NA,NA,NA,NA,NA,NA,NA,NA,NA,NA,NA,NA,NA,NA,NA,NA
NA,NA,NA,NA,NA,21,1.1811,1,0,30,30,11,1,21,681,2022-02-05_21h06.20.015,timed_fluency,2021.2.3,Win32,60.72382803,NA,NA,NA,NA,NA,NA,NA,NA,NA,NA,NA,NA,NA,NA,NA,NA,NA,NA,NA,NA,NA
NA,NA,NA,NA,NA,NA,NA,NA,NA,NA,NA,NA,NA,NA,681,2022-02-05_21h06.20.015,timed_fluency,2021.2.3,Win32,60.72382803,0,1,1,1,1,typing.xlsx,2,NA,NA,NA,NA,NA,NA,NA,NA,NA,NA,NA,NA,NA,NA
NA,NA,NA,NA,NA,NA,NA,NA,NA,NA,NA,NA,NA,NA,681,2022-02-05_21h06.20.015,timed_fluency,2021.2.3,Win32,60.72382803,NA,NA,NA,NA,NA,NA,NA,space,9.3759,6,5.1749,1,0,0,0,0,1,2 × 3 =,6,NA,NA
NA,NA,NA,NA,NA,NA,NA,NA,NA,NA,NA,NA,NA,NA,681,2022-02-05_21h06.20.015,timed_fluency,2021.2.3,Win32,60.72382803,NA,NA,NA,NA,NA,NA,NA,NA,NA,40,3.8852,1,0,1,1,1,1,5 × 8 =,40,NA,NA
NA,NA,NA,NA,NA,NA,NA,NA,NA,NA,NA,NA,NA,NA,681,2022-02-05_21h06.20.015,timed_fluency,2021.2.3,Win32,60.72382803,NA,NA,NA,NA,NA,NA,NA,NA,NA,12,1.4047,1,0,2,2,2,1,3 × 4 =,12,NA,NA
NA,NA,NA,NA,NA,NA,NA,NA,NA,NA,NA,NA,NA,NA,681,2022-02-05_21h06.20.015,timed_fluency,2021.2.3,Win32,60.72382803,NA,NA,NA,NA,NA,NA,NA,NA,NA,15,1.6136,1,0,3,3,3,1,5 × 3 =,15,NA,NA
NA,NA,NA,NA,NA,NA,NA,NA,NA,NA,NA,NA,NA,NA,681,2022-02-05_21h06.20.015,timed_fluency,2021.2.3,Win32,60.72382803,NA,NA,NA,NA,NA,NA,NA,NA,NA,8,1.7287,1,0,4,4,4,1,2 × 4 =,8,NA,NA
NA,NA,NA,NA,NA,NA,NA,NA,NA,NA,NA,NA,NA,NA,681,2022-02-05_21h06.20.015,timed_fluency,2021.2.3,Win32,60.72382803,NA,NA,NA,NA,NA,NA,NA,NA,NA,4,1.6653,1,0,5,5,5,1,2 × 2 =,4,NA,NA
NA,NA,NA,NA,NA,NA,NA,NA,NA,NA,NA,NA,NA,NA,681,2022-02-05_21h06.20.015,timed_fluency,2021.2.3,Win32,60.72382803,NA,NA,NA,NA,NA,NA,NA,NA,NA,20,1.8296,1,0,6,6,6,1,4 × 5 =,20,NA,NA
NA,NA,NA,NA,NA,NA,NA,NA,NA,NA,NA,NA,NA,NA,681,2022-02-05_21h06.20.015,timed_fluency,2021.2.3,Win32,60.72382803,NA,NA,NA,NA,NA,NA,NA,NA,NA,9,1.4864,1,0,7,7,7,1,3 × 3 =,9,NA,NA
NA,NA,NA,NA,NA,NA,NA,NA,NA,NA,NA,NA,NA,NA,681,2022-02-05_21h06.20.015,timed_fluency,2021.2.3,Win32,60.72382803,NA,NA,NA,NA,NA,NA,NA,NA,NA,10,1.843,1,0,8,8,8,1,5 × 2 =,10,NA,NA
NA,NA,NA,NA,NA,NA,NA,NA,NA,NA,NA,NA,NA,NA,681,2022-02-05_21h06.20.015,timed_fluency,2021.2.3,Win32,60.72382803,NA,NA,NA,NA,NA,NA,NA,NA,NA,16,1.7137,1,0,9,9,9,1,4 × 4 =,16,NA,NA
NA,NA,NA,NA,NA,NA,NA,NA,NA,NA,NA,NA,NA,NA,681,2022-02-05_21h06.20.015,timed_fluency,2021.2.3,Win32,60.72382803,NA,NA,NA,NA,NA,NA,NA,NA,NA,24,1.6146,1,0,10,10,10,1,8 × 3 =,24,NA,NA
NA,NA,NA,NA,NA,NA,NA,NA,NA,NA,NA,NA,NA,NA,681,2022-02-05_21h06.20.015,timed_fluency,2021.2.3,Win32,60.72382803,NA,NA,NA,NA,NA,NA,NA,NA,NA,30,1.8799,1,0,11,11,11,1,6 × 5 =,30,NA,NA
NA,NA,NA,NA,NA,NA,NA,NA,NA,NA,NA,NA,NA,NA,681,2022-02-05_21h06.20.015,timed_fluency,2021.2.3,Win32,60.72382803,NA,NA,NA,NA,NA,NA,NA,NA,NA,14,2.2474,1,0,12,12,12,1,7 × 2 =,14,NA,NA
NA,NA,NA,NA,NA,NA,NA,NA,NA,NA,NA,NA,NA,NA,681,2022-02-05_21h06.20.015,timed_fluency,2021.2.3,Win32,60.72382803,NA,NA,NA,NA,NA,NA,NA,NA,NA,27,1.8538,1,0,13,13,13,1,3 × 9 =,27,NA,NA
NA,NA,NA,NA,NA,NA,NA,NA,NA,NA,NA,NA,NA,NA,681,2022-02-05_21h06.20.015,timed_fluency,2021.2.3,Win32,60.72382803,NA,NA,NA,NA,NA,NA,NA,NA,NA,16,1.6792,1,0,14,14,14,1,2 × 8 =,16,NA,NA
NA,NA,NA,NA,NA,NA,NA,NA,NA,NA,NA,NA,NA,NA,681,2022-02-05_21h06.20.015,timed_fluency,2021.2.3,Win32,60.72382803,NA,NA,NA,NA,NA,NA,NA,NA,NA,24,1.6815,1,0,15,15,15,1,4 × 6 =,24,NA,NA
NA,NA,NA,NA,NA,NA,NA,NA,NA,NA,NA,NA,NA,NA,681,2022-02-05_21h06.20.015,timed_fluency,2021.2.3,Win32,60.72382803,NA,NA,NA,NA,NA,NA,NA,NA,NA,21,1.4475,1,0,16,16,16,1,7 × 3 =,21,NA,NA
NA,NA,NA,NA,NA,NA,NA,NA,NA,NA,NA,NA,NA,NA,681,2022-02-05_21h06.20.015,timed_fluency,2021.2.3,Win32,60.72382803,NA,NA,NA,NA,NA,NA,NA,NA,NA,27,2.3638,1,0,17,17,17,1,9 × 3 =,27,NA,NA
NA,NA,NA,NA,NA,NA,NA,NA,NA,NA,NA,NA,NA,NA,681,2022-02-05_21h06.20.015,timed_fluency,2021.2.3,Win32,60.72382803,NA,NA,NA,NA,NA,NA,NA,NA,NA,28,2.1813,1,0,18,18,18,1,4 × 7 =,28,NA,NA
NA,NA,NA,NA,NA,NA,NA,NA,NA,NA,NA,NA,NA,NA,681,2022-02-05_21h06.20.015,timed_fluency,2021.2.3,Win32,60.72382803,NA,NA,NA,NA,NA,NA,NA,NA,NA,18,1.9342,1,0,19,19,19,1,2 × 9 =,18,NA,NA
NA,NA,NA,NA,NA,NA,NA,NA,NA,NA,NA,NA,NA,NA,681,2022-02-05_21h06.20.015,timed_fluency,2021.2.3,Win32,60.72382803,NA,NA,NA,NA,NA,NA,NA,NA,NA,72,2.4919,1,0,20,20,20,1,9 × 8 =,72,NA,NA
NA,NA,NA,NA,NA,NA,NA,NA,NA,NA,NA,NA,NA,NA,681,2022-02-05_21h06.20.015,timed_fluency,2021.2.3,Win32,60.72382803,NA,NA,NA,NA,NA,NA,NA,NA,NA,42,2.1484,1,0,21,21,21,1,7 × 6 =,42,NA,NA
NA,NA,NA,NA,NA,NA,NA,NA,NA,NA,NA,NA,NA,NA,681,2022-02-05_21h06.20.015,timed_fluency,2021.2.3,Win32,60.72382803,NA,NA,NA,NA,NA,NA,NA,NA,NA,54,2.0794,1,0,22,22,22,1,6 × 9 =,54,NA,NA
NA,NA,NA,NA,NA,NA,NA,NA,NA,NA,NA,NA,NA,NA,681,2022-02-05_21h06.20.015,timed_fluency,2021.2.3,Win32,60.72382803,NA,NA,NA,NA,NA,NA,NA,NA,NA,45,2.5139,1,0,23,23,23,1,9 × 5 =,45,NA,NA
NA,NA,NA,NA,NA,NA,NA,NA,NA,NA,NA,NA,NA,NA,681,2022-02-05_21h06.20.015,timed_fluency,2021.2.3,Win32,60.72382803,NA,NA,NA,NA,NA,NA,NA,NA,NA,56,2.8683,1,0,24,24,24,1,8 × 7 =,56,NA,NA
NA,NA,NA,NA,NA,NA,NA,NA,NA,NA,NA,NA,NA,NA,681,2022-02-05_21h06.20.015,timed_fluency,2021.2.3,Win32,60.72382803,NA,NA,NA,NA,NA,NA,NA,NA,NA,36,2.2303,1,0,25,25,25,1,6 × 6 =,36,NA,NA
NA,NA,NA,NA,NA,NA,NA,NA,NA,NA,NA,NA,NA,NA,681,2022-02-05_21h06.20.015,timed_fluency,2021.2.3,Win32,60.72382803,NA,NA,NA,NA,NA,NA,NA,NA,NA,35,1.7305,1,0,26,26,26,1,5 × 7 =,35,NA,NA
NA,NA,NA,NA,NA,NA,NA,NA,NA,NA,NA,NA,NA,NA,681,2022-02-05_21h06.20.015,timed_fluency,2021.2.3,Win32,60.72382803,NA,NA,NA,NA,NA,NA,NA,NA,NA,36,3.8002,1,0,27,27,27,1,4 × 9 =,36,NA,NA
NA,NA,NA,NA,NA,NA,NA,NA,NA,NA,NA,NA,NA,NA,681,2022-02-05_21h06.20.015,timed_fluency,2021.2.3,Win32,60.72382803,NA,NA,NA,NA,NA,NA,NA,NA,NA,48,2.3146,1,0,28,28,28,1,8 × 6 =,48,NA,NA
NA,NA,NA,NA,NA,NA,NA,NA,NA,NA,NA,NA,NA,NA,681,2022-02-05_21h06.20.015,timed_fluency,2021.2.3,Win32,60.72382803,NA,NA,NA,NA,NA,NA,NA,NA,NA,63,2.4654,1,0,29,29,29,1,9 × 7 =,63,NA,NA
NA,NA,NA,NA,NA,NA,NA,NA,NA,NA,NA,NA,NA,NA,681,2022-02-05_21h06.20.015,timed_fluency,2021.2.3,Win32,60.72382803,NA,NA,NA,NA,NA,NA,NA,NA,NA,12,1.213,1,0,30,30,30,1,4 × 3 =,12,NA,NA
NA,NA,NA,NA,NA,NA,NA,NA,NA,NA,NA,NA,NA,NA,681,2022-02-05_21h06.20.015,timed_fluency,2021.2.3,Win32,60.72382803,NA,NA,NA,NA,NA,NA,NA,NA,NA,25,1.7987,1,0,31,31,31,1,5 × 5 =,25,NA,NA
NA,NA,NA,NA,NA,NA,NA,NA,NA,NA,NA,NA,NA,NA,681,2022-02-05_21h06.20.015,timed_fluency,2021.2.3,Win32,60.72382803,NA,NA,NA,NA,NA,NA,NA,NA,NA,6,1.6293,1,0,32,32,32,1,3 × 2 =,6,NA,NA
NA,NA,NA,NA,NA,NA,NA,NA,NA,NA,NA,NA,NA,NA,681,2022-02-05_21h06.20.015,timed_fluency,2021.2.3,Win32,60.72382803,NA,NA,NA,NA,NA,NA,NA,NA,NA,20,1.8812,1,0,33,33,33,1,5 × 4 =,20,NA,NA
NA,NA,NA,NA,NA,NA,NA,NA,NA,NA,NA,NA,NA,NA,681,2022-02-05_21h06.20.015,timed_fluency,2021.2.3,Win32,60.72382803,NA,NA,NA,NA,NA,NA,NA,NA,NA,8,1.8152,1,0,34,34,34,1,4 × 2 =,8,NA,NA
NA,NA,NA,NA,NA,NA,NA,NA,NA,NA,NA,NA,NA,NA,681,2022-02-05_21h06.20.015,timed_fluency,2021.2.3,Win32,60.72382803,NA,NA,NA,NA,NA,NA,NA,NA,NA,12,2.2631,1,0,35,35,35,1,2 × 6 =,12,NA,NA
NA,NA,NA,NA,NA,NA,NA,NA,NA,NA,NA,NA,NA,NA,681,2022-02-05_21h06.20.015,timed_fluency,2021.2.3,Win32,60.72382803,NA,NA,NA,NA,NA,NA,NA,NA,NA,15,1.5031,1,0,36,36,36,1,3 × 5 =,15,NA,NA
NA,NA,NA,NA,NA,NA,NA,NA,NA,NA,NA,NA,NA,NA,681,2022-02-05_21h06.20.015,timed_fluency,2021.2.3,Win32,60.72382803,NA,NA,NA,NA,NA,NA,NA,NA,NA,18,1.6924,1,0,37,37,37,1,6 × 3 =,18,NA,NA
NA,NA,NA,NA,NA,NA,NA,NA,NA,NA,NA,NA,NA,NA,681,2022-02-05_21h06.20.015,timed_fluency,2021.2.3,Win32,60.72382803,NA,NA,NA,NA,NA,NA,NA,NA,NA,10,1.8129,1,0,38,38,38,1,2 × 5 =,10,NA,NA
NA,NA,NA,NA,NA,NA,NA,NA,NA,NA,NA,NA,NA,NA,681,2022-02-05_21h06.20.015,timed_fluency,2021.2.3,Win32,60.72382803,NA,NA,NA,NA,NA,NA,NA,NA,NA,24,1.4986,0,0,39,39,39,1,4 × 8 =,32,NA,NA
NA,NA,NA,NA,NA,NA,NA,NA,NA,NA,NA,NA,NA,NA,681,2022-02-05_21h06.20.015,timed_fluency,2021.2.3,Win32,60.72382803,NA,NA,NA,NA,NA,NA,NA,NA,NA,24,1.8311,1,0,40,40,40,1,3 × 8 =,24,NA,NA
NA,NA,NA,NA,NA,NA,NA,NA,NA,NA,NA,NA,NA,NA,681,2022-02-05_21h06.20.015,timed_fluency,2021.2.3,Win32,60.72382803,NA,NA,NA,NA,NA,NA,NA,NA,NA,30,1.964,1,0,41,41,41,1,5 × 6 =,30,NA,NA
NA,NA,NA,NA,NA,NA,NA,NA,NA,NA,NA,NA,NA,NA,681,2022-02-05_21h06.20.015,timed_fluency,2021.2.3,Win32,60.72382803,NA,NA,NA,NA,NA,NA,NA,NA,NA,14,1.4478,1,0,42,42,42,1,2 × 7 =,14,NA,NA
NA,NA,NA,NA,NA,NA,NA,NA,NA,NA,NA,NA,NA,NA,681,2022-02-05_21h06.20.015,timed_fluency,2021.2.3,Win32,60.72382803,NA,NA,NA,NA,NA,NA,NA,NA,NA,24,1.6816,1,0,43,43,43,1,6 × 4 =,24,NA,NA
NA,NA,NA,NA,NA,NA,NA,NA,NA,NA,NA,NA,NA,NA,681,2022-02-05_21h06.20.015,timed_fluency,2021.2.3,Win32,60.72382803,NA,NA,NA,NA,NA,NA,NA,NA,NA,NA,NA,0,0,44,44,44,1,3 × 7 =,21,NA,NA
NA,NA,NA,NA,NA,NA,NA,NA,NA,NA,NA,NA,NA,NA,681,2022-02-05_21h06.20.015,timed_fluency,2021.2.3,Win32,60.72382803,NA,NA,NA,NA,NA,NA,NA,NA,NA,NA,NA,NA,NA,NA,NA,NA,NA,NA,NA,space,7.2675
"[1536,722]",space,5.0027,space,6.9595,10,2.0905,1,0,0,0,4,1,10,683,2022-02-05_15h57.21.378,timed_fluency,2021.2.3,Win32,59.92329818,NA,NA,NA,NA,NA,NA,NA,NA,NA,NA,NA,NA,NA,NA,NA,NA,NA,NA,NA,NA,NA
NA,NA,NA,NA,NA,21,1.581,1,0,1,1,11,1,21,683,2022-02-05_15h57.21.378,timed_fluency,2021.2.3,Win32,59.92329818,NA,NA,NA,NA,NA,NA,NA,NA,NA,NA,NA,NA,NA,NA,NA,NA,NA,NA,NA,NA,NA
NA,NA,NA,NA,NA,32,1.6321,1,0,2,2,17,1,32,683,2022-02-05_15h57.21.378,timed_fluency,2021.2.3,Win32,59.92329818,NA,NA,NA,NA,NA,NA,NA,NA,NA,NA,NA,NA,NA,NA,NA,NA,NA,NA,NA,NA,NA
NA,NA,NA,NA,NA,40,1.5317,1,0,3,3,20,1,40,683,2022-02-05_15h57.21.378,timed_fluency,2021.2.3,Win32,59.92329818,NA,NA,NA,NA,NA,NA,NA,NA,NA,NA,NA,NA,NA,NA,NA,NA,NA,NA,NA,NA,NA
NA,NA,NA,NA,NA,4,1.5819,1,0,4,4,0,1,4,683,2022-02-05_15h57.21.378,timed_fluency,2021.2.3,Win32,59.92329818,NA,NA,NA,NA,NA,NA,NA,NA,NA,NA,NA,NA,NA,NA,NA,NA,NA,NA,NA,NA,NA
NA,NA,NA,NA,NA,27,1.6487,1,0,5,5,14,1,27,683,2022-02-05_15h57.21.378,timed_fluency,2021.2.3,Win32,59.92329818,NA,NA,NA,NA,NA,NA,NA,NA,NA,NA,NA,NA,NA,NA,NA,NA,NA,NA,NA,NA,NA
NA,NA,NA,NA,NA,15,1.4148,1,0,6,6,7,1,15,683,2022-02-05_15h57.21.378,timed_fluency,2021.2.3,Win32,59.92329818,NA,NA,NA,NA,NA,NA,NA,NA,NA,NA,NA,NA,NA,NA,NA,NA,NA,NA,NA,NA,NA
NA,NA,NA,NA,NA,20,1.3654,1,0,7,7,10,1,20,683,2022-02-05_15h57.21.378,timed_fluency,2021.2.3,Win32,59.92329818,NA,NA,NA,NA,NA,NA,NA,NA,NA,NA,NA,NA,NA,NA,NA,NA,NA,NA,NA,NA,NA
NA,NA,NA,NA,NA,6,1.3489,1,0,8,8,1,1,6,683,2022-02-05_15h57.21.378,timed_fluency,2021.2.3,Win32,59.92329818,NA,NA,NA,NA,NA,NA,NA,NA,NA,NA,NA,NA,NA,NA,NA,NA,NA,NA,NA,NA,NA
NA,NA,NA,NA,NA,30,1.3653,1,0,9,9,16,1,30,683,2022-02-05_15h57.21.378,timed_fluency,2021.2.3,Win32,59.92329818,NA,NA,NA,NA,NA,NA,NA,NA,NA,NA,NA,NA,NA,NA,NA,NA,NA,NA,NA,NA,NA
NA,NA,NA,NA,NA,12,1.032,1,0,10,10,5,1,12,683,2022-02-05_15h57.21.378,timed_fluency,2021.2.3,Win32,59.92329818,NA,NA,NA,NA,NA,NA,NA,NA,NA,NA,NA,NA,NA,NA,NA,NA,NA,NA,NA,NA,NA
NA,NA,NA,NA,NA,36,1.8817,1,0,11,11,19,1,36,683,2022-02-05_15h57.21.378,timed_fluency,2021.2.3,Win32,59.92329818,NA,NA,NA,NA,NA,NA,NA,NA,NA,NA,NA,NA,NA,NA,NA,NA,NA,NA,NA,NA,NA
NA,NA,NA,NA,NA,81,1.4488,1,0,12,12,30,1,81,683,2022-02-05_15h57.21.378,timed_fluency,2021.2.3,Win32,59.92329818,NA,NA,NA,NA,NA,NA,NA,NA,NA,NA,NA,NA,NA,NA,NA,NA,NA,NA,NA,NA,NA
NA,NA,NA,NA,NA,28,1.3655,1,0,13,13,15,1,28,683,2022-02-05_15h57.21.378,timed_fluency,2021.2.3,Win32,59.92329818,NA,NA,NA,NA,NA,NA,NA,NA,NA,NA,NA,NA,NA,NA,NA,NA,NA,NA,NA,NA,NA
NA,NA,NA,NA,NA,14,1.2822,1,0,14,14,6,1,14,683,2022-02-05_15h57.21.378,timed_fluency,2021.2.3,Win32,59.92329818,NA,NA,NA,NA,NA,NA,NA,NA,NA,NA,NA,NA,NA,NA,NA,NA,NA,NA,NA,NA,NA
NA,NA,NA,NA,NA,25,1.3488,1,0,15,15,13,1,25,683,2022-02-05_15h57.21.378,timed_fluency,2021.2.3,Win32,59.92329818,NA,NA,NA,NA,NA,NA,NA,NA,NA,NA,NA,NA,NA,NA,NA,NA,NA,NA,NA,NA,NA
NA,NA,NA,NA,NA,49,1.6988,1,0,16,16,24,1,49,683,2022-02-05_15h57.21.378,timed_fluency,2021.2.3,Win32,59.92329818,NA,NA,NA,NA,NA,NA,NA,NA,NA,NA,NA,NA,NA,NA,NA,NA,NA,NA,NA,NA,NA
NA,NA,NA,NA,NA,56,1.3822,1,0,17,17,26,1,56,683,2022-02-05_15h57.21.378,timed_fluency,2021.2.3,Win32,59.92329818,NA,NA,NA,NA,NA,NA,NA,NA,NA,NA,NA,NA,NA,NA,NA,NA,NA,NA,NA,NA,NA
NA,NA,NA,NA,NA,24,1.3156,1,0,18,18,12,1,24,683,2022-02-05_15h57.21.378,timed_fluency,2021.2.3,Win32,59.92329818,NA,NA,NA,NA,NA,NA,NA,NA,NA,NA,NA,NA,NA,NA,NA,NA,NA,NA,NA,NA,NA
NA,NA,NA,NA,NA,16,1.3487,1,0,19,19,8,1,16,683,2022-02-05_15h57.21.378,timed_fluency,2021.2.3,Win32,59.92329818,NA,NA,NA,NA,NA,NA,NA,NA,NA,NA,NA,NA,NA,NA,NA,NA,NA,NA,NA,NA,NA
NA,NA,NA,NA,NA,45,1.2821,1,0,20,20,22,1,45,683,2022-02-05_15h57.21.378,timed_fluency,2021.2.3,Win32,59.92329818,NA,NA,NA,NA,NA,NA,NA,NA,NA,NA,NA,NA,NA,NA,NA,NA,NA,NA,NA,NA,NA
NA,NA,NA,NA,NA,35,1.5321,1,0,21,21,18,1,35,683,2022-02-05_15h57.21.378,timed_fluency,2021.2.3,Win32,59.92329818,NA,NA,NA,NA,NA,NA,NA,NA,NA,NA,NA,NA,NA,NA,NA,NA,NA,NA,NA,NA,NA
NA,NA,NA,NA,NA,72,1.9152,1,0,22,22,29,1,72,683,2022-02-05_15h57.21.378,timed_fluency,2021.2.3,Win32,59.92329818,NA,NA,NA,NA,NA,NA,NA,NA,NA,NA,NA,NA,NA,NA,NA,NA,NA,NA,NA,NA,NA
NA,NA,NA,NA,NA,48,1.7153,1,0,23,23,23,1,48,683,2022-02-05_15h57.21.378,timed_fluency,2021.2.3,Win32,59.92329818,NA,NA,NA,NA,NA,NA,NA,NA,NA,NA,NA,NA,NA,NA,NA,NA,NA,NA,NA,NA,NA
NA,NA,NA,NA,NA,63,1.8153,1,0,24,24,27,1,63,683,2022-02-05_15h57.21.378,timed_fluency,2021.2.3,Win32,59.92329818,NA,NA,NA,NA,NA,NA,NA,NA,NA,NA,NA,NA,NA,NA,NA,NA,NA,NA,NA,NA,NA
NA,NA,NA,NA,NA,9,1.2654,1,0,25,25,3,1,9,683,2022-02-05_15h57.21.378,timed_fluency,2021.2.3,Win32,59.92329818,NA,NA,NA,NA,NA,NA,NA,NA,NA,NA,NA,NA,NA,NA,NA,NA,NA,NA,NA,NA,NA
NA,NA,NA,NA,NA,8,1.2822,1,0,26,26,2,1,8,683,2022-02-05_15h57.21.378,timed_fluency,2021.2.3,Win32,59.92329818,NA,NA,NA,NA,NA,NA,NA,NA,NA,NA,NA,NA,NA,NA,NA,NA,NA,NA,NA,NA,NA
NA,NA,NA,NA,NA,42,1.7653,1,0,27,27,21,1,42,683,2022-02-05_15h57.21.378,timed_fluency,2021.2.3,Win32,59.92329818,NA,NA,NA,NA,NA,NA,NA,NA,NA,NA,NA,NA,NA,NA,NA,NA,NA,NA,NA,NA,NA
NA,NA,NA,NA,NA,54,1.7654,1,0,28,28,25,1,54,683,2022-02-05_15h57.21.378,timed_fluency,2021.2.3,Win32,59.92329818,NA,NA,NA,NA,NA,NA,NA,NA,NA,NA,NA,NA,NA,NA,NA,NA,NA,NA,NA,NA,NA
NA,NA,NA,NA,NA,18,1.4655,1,0,29,29,9,1,18,683,2022-02-05_15h57.21.378,timed_fluency,2021.2.3,Win32,59.92329818,NA,NA,NA,NA,NA,NA,NA,NA,NA,NA,NA,NA,NA,NA,NA,NA,NA,NA,NA,NA,NA
NA,NA,NA,NA,NA,64,2.4483,1,0,30,30,28,1,64,683,2022-02-05_15h57.21.378,timed_fluency,2021.2.3,Win32,59.92329818,NA,NA,NA,NA,NA,NA,NA,NA,NA,NA,NA,NA,NA,NA,NA,NA,NA,NA,NA,NA,NA
NA,NA,NA,NA,NA,NA,NA,NA,NA,NA,NA,NA,NA,NA,683,2022-02-05_15h57.21.378,timed_fluency,2021.2.3,Win32,59.92329818,0,0,0,0,1,typing.xlsx,1,NA,NA,NA,NA,NA,NA,NA,NA,NA,NA,NA,NA,NA,NA
NA,NA,NA,NA,NA,6,1.6641,1,0,0,0,1,1,6,683,2022-02-05_15h57.21.378,timed_fluency,2021.2.3,Win32,59.92329818,NA,NA,NA,NA,NA,NA,NA,NA,NA,NA,NA,NA,NA,NA,NA,NA,NA,NA,NA,NA,NA
NA,NA,NA,NA,NA,56,1.5489,1,0,1,1,26,1,56,683,2022-02-05_15h57.21.378,timed_fluency,2021.2.3,Win32,59.92329818,NA,NA,NA,NA,NA,NA,NA,NA,NA,NA,NA,NA,NA,NA,NA,NA,NA,NA,NA,NA,NA
NA,NA,NA,NA,NA,14,1.4487,1,0,2,2,6,1,14,683,2022-02-05_15h57.21.378,timed_fluency,2021.2.3,Win32,59.92329818,NA,NA,NA,NA,NA,NA,NA,NA,NA,NA,NA,NA,NA,NA,NA,NA,NA,NA,NA,NA,NA
NA,NA,NA,NA,NA,16,1.082,1,0,3,3,8,1,16,683,2022-02-05_15h57.21.378,timed_fluency,2021.2.3,Win32,59.92329818,NA,NA,NA,NA,NA,NA,NA,NA,NA,NA,NA,NA,NA,NA,NA,NA,NA,NA,NA,NA,NA
NA,NA,NA,NA,NA,49,1.6486,1,0,4,4,24,1,49,683,2022-02-05_15h57.21.378,timed_fluency,2021.2.3,Win32,59.92329818,NA,NA,NA,NA,NA,NA,NA,NA,NA,NA,NA,NA,NA,NA,NA,NA,NA,NA,NA,NA,NA
NA,NA,NA,NA,NA,54,1.4155,1,0,5,5,25,1,54,683,2022-02-05_15h57.21.378,timed_fluency,2021.2.3,Win32,59.92329818,NA,NA,NA,NA,NA,NA,NA,NA,NA,NA,NA,NA,NA,NA,NA,NA,NA,NA,NA,NA,NA
NA,NA,NA,NA,NA,21,1.3155,1,0,6,6,11,1,21,683,2022-02-05_15h57.21.378,timed_fluency,2021.2.3,Win32,59.92329818,NA,NA,NA,NA,NA,NA,NA,NA,NA,NA,NA,NA,NA,NA,NA,NA,NA,NA,NA,NA,NA
NA,NA,NA,NA,NA,42,1.5823,1,0,7,7,21,1,42,683,2022-02-05_15h57.21.378,timed_fluency,2021.2.3,Win32,59.92329818,NA,NA,NA,NA,NA,NA,NA,NA,NA,NA,NA,NA,NA,NA,NA,NA,NA,NA,NA,NA,NA
NA,NA,NA,NA,NA,15,1.182,1,0,8,8,7,1,15,683,2022-02-05_15h57.21.378,timed_fluency,2021.2.3,Win32,59.92329818,NA,NA,NA,NA,NA,NA,NA,NA,NA,NA,NA,NA,NA,NA,NA,NA,NA,NA,NA,NA,NA
NA,NA,NA,NA,NA,81,1.2488,1,0,9,9,30,1,81,683,2022-02-05_15h57.21.378,timed_fluency,2021.2.3,Win32,59.92329818,NA,NA,NA,NA,NA,NA,NA,NA,NA,NA,NA,NA,NA,NA,NA,NA,NA,NA,NA,NA,NA
NA,NA,NA,NA,NA,32,1.5486,1,0,10,10,17,1,32,683,2022-02-05_15h57.21.378,timed_fluency,2021.2.3,Win32,59.92329818,NA,NA,NA,NA,NA,NA,NA,NA,NA,NA,NA,NA,NA,NA,NA,NA,NA,NA,NA,NA,NA
NA,NA,NA,NA,NA,35,1.6154,1,0,11,11,18,1,35,683,2022-02-05_15h57.21.378,timed_fluency,2021.2.3,Win32,59.92329818,NA,NA,NA,NA,NA,NA,NA,NA,NA,NA,NA,NA,NA,NA,NA,NA,NA,NA,NA,NA,NA
NA,NA,NA,NA,NA,36,1.1656,1,0,12,12,19,1,36,683,2022-02-05_15h57.21.378,timed_fluency,2021.2.3,Win32,59.92329818,NA,NA,NA,NA,NA,NA,NA,NA,NA,NA,NA,NA,NA,NA,NA,NA,NA,NA,NA,NA,NA
NA,NA,NA,NA,NA,12,1.1821,1,0,13,13,5,1,12,683,2022-02-05_15h57.21.378,timed_fluency,2021.2.3,Win32,59.92329818,NA,NA,NA,NA,NA,NA,NA,NA,NA,NA,NA,NA,NA,NA,NA,NA,NA,NA,NA,NA,NA
NA,NA,NA,NA,NA,24,1.4988,1,0,14,14,12,1,24,683,2022-02-05_15h57.21.378,timed_fluency,2021.2.3,Win32,59.92329818,NA,NA,NA,NA,NA,NA,NA,NA,NA,NA,NA,NA,NA,NA,NA,NA,NA,NA,NA,NA,NA
NA,NA,NA,NA,NA,18,1.1822,1,0,15,15,9,1,18,683,2022-02-05_15h57.21.378,timed_fluency,2021.2.3,Win32,59.92329818,NA,NA,NA,NA,NA,NA,NA,NA,NA,NA,NA,NA,NA,NA,NA,NA,NA,NA,NA,NA,NA
NA,NA,NA,NA,NA,40,1.6321,1,0,16,16,20,1,40,683,2022-02-05_15h57.21.378,timed_fluency,2021.2.3,Win32,59.92329818,NA,NA,NA,NA,NA,NA,NA,NA,NA,NA,NA,NA,NA,NA,NA,NA,NA,NA,NA,NA,NA
NA,NA,NA,NA,NA,28,1.8486,1,0,17,17,15,1,28,683,2022-02-05_15h57.21.378,timed_fluency,2021.2.3,Win32,59.92329818,NA,NA,NA,NA,NA,NA,NA,NA,NA,NA,NA,NA,NA,NA,NA,NA,NA,NA,NA,NA,NA
NA,NA,NA,NA,NA,45,1.2157,1,0,18,18,22,1,45,683,2022-02-05_15h57.21.378,timed_fluency,2021.2.3,Win32,59.92329818,NA,NA,NA,NA,NA,NA,NA,NA,NA,NA,NA,NA,NA,NA,NA,NA,NA,NA,NA,NA,NA
NA,NA,NA,NA,NA,4,1.3155,1,0,19,19,0,1,4,683,2022-02-05_15h57.21.378,timed_fluency,2021.2.3,Win32,59.92329818,NA,NA,NA,NA,NA,NA,NA,NA,NA,NA,NA,NA,NA,NA,NA,NA,NA,NA,NA,NA,NA
NA,NA,NA,NA,NA,30,1.5656,1,0,20,20,16,1,30,683,2022-02-05_15h57.21.378,timed_fluency,2021.2.3,Win32,59.92329818,NA,NA,NA,NA,NA,NA,NA,NA,NA,NA,NA,NA,NA,NA,NA,NA,NA,NA,NA,NA,NA
NA,NA,NA,NA,NA,27,1.3657,1,0,21,21,14,1,27,683,2022-02-05_15h57.21.378,timed_fluency,2021.2.3,Win32,59.92329818,NA,NA,NA,NA,NA,NA,NA,NA,NA,NA,NA,NA,NA,NA,NA,NA,NA,NA,NA,NA,NA
NA,NA,NA,NA,NA,9,1.249,1,0,22,22,3,1,9,683,2022-02-05_15h57.21.378,timed_fluency,2021.2.3,Win32,59.92329818,NA,NA,NA,NA,NA,NA,NA,NA,NA,NA,NA,NA,NA,NA,NA,NA,NA,NA,NA,NA,NA
NA,NA,NA,NA,NA,25,1.3987,1,0,23,23,13,1,25,683,2022-02-05_15h57.21.378,timed_fluency,2021.2.3,Win32,59.92329818,NA,NA,NA,NA,NA,NA,NA,NA,NA,NA,NA,NA,NA,NA,NA,NA,NA,NA,NA,NA,NA
NA,NA,NA,NA,NA,72,1.4487,1,0,24,24,29,1,72,683,2022-02-05_15h57.21.378,timed_fluency,2021.2.3,Win32,59.92329818,NA,NA,NA,NA,NA,NA,NA,NA,NA,NA,NA,NA,NA,NA,NA,NA,NA,NA,NA,NA,NA
NA,NA,NA,NA,NA,63,1.5821,1,0,25,25,27,1,63,683,2022-02-05_15h57.21.378,timed_fluency,2021.2.3,Win32,59.92329818,NA,NA,NA,NA,NA,NA,NA,NA,NA,NA,NA,NA,NA,NA,NA,NA,NA,NA,NA,NA,NA
NA,NA,NA,NA,NA,64,1.3656,1,0,26,26,28,1,64,683,2022-02-05_15h57.21.378,timed_fluency,2021.2.3,Win32,59.92329818,NA,NA,NA,NA,NA,NA,NA,NA,NA,NA,NA,NA,NA,NA,NA,NA,NA,NA,NA,NA,NA
NA,NA,NA,NA,NA,20,1.3489,1,0,27,27,10,1,20,683,2022-02-05_15h57.21.378,timed_fluency,2021.2.3,Win32,59.92329818,NA,NA,NA,NA,NA,NA,NA,NA,NA,NA,NA,NA,NA,NA,NA,NA,NA,NA,NA,NA,NA
NA,NA,NA,NA,NA,48,1.5487,1,0,28,28,23,1,48,683,2022-02-05_15h57.21.378,timed_fluency,2021.2.3,Win32,59.92329818,NA,NA,NA,NA,NA,NA,NA,NA,NA,NA,NA,NA,NA,NA,NA,NA,NA,NA,NA,NA,NA
NA,NA,NA,NA,NA,8,1.1155,1,0,29,29,2,1,8,683,2022-02-05_15h57.21.378,timed_fluency,2021.2.3,Win32,59.92329818,NA,NA,NA,NA,NA,NA,NA,NA,NA,NA,NA,NA,NA,NA,NA,NA,NA,NA,NA,NA,NA
NA,NA,NA,NA,NA,10,0.9991,1,0,30,30,4,1,10,683,2022-02-05_15h57.21.378,timed_fluency,2021.2.3,Win32,59.92329818,NA,NA,NA,NA,NA,NA,NA,NA,NA,NA,NA,NA,NA,NA,NA,NA,NA,NA,NA,NA,NA
NA,NA,NA,NA,NA,NA,NA,NA,NA,NA,NA,NA,NA,NA,683,2022-02-05_15h57.21.378,timed_fluency,2021.2.3,Win32,59.92329818,0,1,1,1,1,typing.xlsx,2,NA,NA,NA,NA,NA,NA,NA,NA,NA,NA,NA,NA,NA,NA
NA,NA,NA,NA,NA,NA,NA,NA,NA,NA,NA,NA,NA,NA,683,2022-02-05_15h57.21.378,timed_fluency,2021.2.3,Win32,59.92329818,NA,NA,NA,NA,NA,NA,NA,space,12.126,6,1.8503,1,0,0,0,0,1,2 × 3 =,6,NA,NA
NA,NA,NA,NA,NA,NA,NA,NA,NA,NA,NA,NA,NA,NA,683,2022-02-05_15h57.21.378,timed_fluency,2021.2.3,Win32,59.92329818,NA,NA,NA,NA,NA,NA,NA,NA,NA,40,1.9146,1,0,1,1,1,1,5 × 8 =,40,NA,NA
NA,NA,NA,NA,NA,NA,NA,NA,NA,NA,NA,NA,NA,NA,683,2022-02-05_15h57.21.378,timed_fluency,2021.2.3,Win32,59.92329818,NA,NA,NA,NA,NA,NA,NA,NA,NA,12,1.5149,1,0,2,2,2,1,3 × 4 =,12,NA,NA
NA,NA,NA,NA,NA,NA,NA,NA,NA,NA,NA,NA,NA,NA,683,2022-02-05_15h57.21.378,timed_fluency,2021.2.3,Win32,59.92329818,NA,NA,NA,NA,NA,NA,NA,NA,NA,15,1.3987,1,0,3,3,3,1,5 × 3 =,15,NA,NA
NA,NA,NA,NA,NA,NA,NA,NA,NA,NA,NA,NA,NA,NA,683,2022-02-05_15h57.21.378,timed_fluency,2021.2.3,Win32,59.92329818,NA,NA,NA,NA,NA,NA,NA,NA,NA,8,1.2652,1,0,4,4,4,1,2 × 4 =,8,NA,NA
NA,NA,NA,NA,NA,NA,NA,NA,NA,NA,NA,NA,NA,NA,683,2022-02-05_15h57.21.378,timed_fluency,2021.2.3,Win32,59.92329818,NA,NA,NA,NA,NA,NA,NA,NA,NA,4,1.182,1,0,5,5,5,1,2 × 2 =,4,NA,NA
NA,NA,NA,NA,NA,NA,NA,NA,NA,NA,NA,NA,NA,NA,683,2022-02-05_15h57.21.378,timed_fluency,2021.2.3,Win32,59.92329818,NA,NA,NA,NA,NA,NA,NA,NA,NA,20,1.3487,1,0,6,6,6,1,4 × 5 =,20,NA,NA
NA,NA,NA,NA,NA,NA,NA,NA,NA,NA,NA,NA,NA,NA,683,2022-02-05_15h57.21.378,timed_fluency,2021.2.3,Win32,59.92329818,NA,NA,NA,NA,NA,NA,NA,NA,NA,9,2.3648,1,0,7,7,7,1,3 × 3 =,9,NA,NA
NA,NA,NA,NA,NA,NA,NA,NA,NA,NA,NA,NA,NA,NA,683,2022-02-05_15h57.21.378,timed_fluency,2021.2.3,Win32,59.92329818,NA,NA,NA,NA,NA,NA,NA,NA,NA,10,1.4487,1,0,8,8,8,1,5 × 2 =,10,NA,NA
NA,NA,NA,NA,NA,NA,NA,NA,NA,NA,NA,NA,NA,NA,683,2022-02-05_15h57.21.378,timed_fluency,2021.2.3,Win32,59.92329818,NA,NA,NA,NA,NA,NA,NA,NA,NA,16,1.9651,1,0,9,9,9,1,4 × 4 =,16,NA,NA
NA,NA,NA,NA,NA,NA,NA,NA,NA,NA,NA,NA,NA,NA,683,2022-02-05_15h57.21.378,timed_fluency,2021.2.3,Win32,59.92329818,NA,NA,NA,NA,NA,NA,NA,NA,NA,24,2.015,1,0,10,10,10,1,8 × 3 =,24,NA,NA
NA,NA,NA,NA,NA,NA,NA,NA,NA,NA,NA,NA,NA,NA,683,2022-02-05_15h57.21.378,timed_fluency,2021.2.3,Win32,59.92329818,NA,NA,NA,NA,NA,NA,NA,NA,NA,30,1.7319,1,0,11,11,11,1,6 × 5 =,30,NA,NA
NA,NA,NA,NA,NA,NA,NA,NA,NA,NA,NA,NA,NA,NA,683,2022-02-05_15h57.21.378,timed_fluency,2021.2.3,Win32,59.92329818,NA,NA,NA,NA,NA,NA,NA,NA,NA,14,1.4318,1,0,12,12,12,1,7 × 2 =,14,NA,NA
NA,NA,NA,NA,NA,NA,NA,NA,NA,NA,NA,NA,NA,NA,683,2022-02-05_15h57.21.378,timed_fluency,2021.2.3,Win32,59.92329818,NA,NA,NA,NA,NA,NA,NA,NA,NA,27,1.6154,1,0,13,13,13,1,3 × 9 =,27,NA,NA
NA,NA,NA,NA,NA,NA,NA,NA,NA,NA,NA,NA,NA,NA,683,2022-02-05_15h57.21.378,timed_fluency,2021.2.3,Win32,59.92329818,NA,NA,NA,NA,NA,NA,NA,NA,NA,16,1.432,1,0,14,14,14,1,2 × 8 =,16,NA,NA
NA,NA,NA,NA,NA,NA,NA,NA,NA,NA,NA,NA,NA,NA,683,2022-02-05_15h57.21.378,timed_fluency,2021.2.3,Win32,59.92329818,NA,NA,NA,NA,NA,NA,NA,NA,NA,24,1.4157,1,0,15,15,15,1,4 × 6 =,24,NA,NA
NA,NA,NA,NA,NA,NA,NA,NA,NA,NA,NA,NA,NA,NA,683,2022-02-05_15h57.21.378,timed_fluency,2021.2.3,Win32,59.92329818,NA,NA,NA,NA,NA,NA,NA,NA,NA,21,1.3818,1,0,16,16,16,1,7 × 3 =,21,NA,NA
NA,NA,NA,NA,NA,NA,NA,NA,NA,NA,NA,NA,NA,NA,683,2022-02-05_15h57.21.378,timed_fluency,2021.2.3,Win32,59.92329818,NA,NA,NA,NA,NA,NA,NA,NA,NA,27,1.6319,1,0,17,17,17,1,9 × 3 =,27,NA,NA
NA,NA,NA,NA,NA,NA,NA,NA,NA,NA,NA,NA,NA,NA,683,2022-02-05_15h57.21.378,timed_fluency,2021.2.3,Win32,59.92329818,NA,NA,NA,NA,NA,NA,NA,NA,NA,28,2.1186,1,0,18,18,18,1,4 × 7 =,28,NA,NA
NA,NA,NA,NA,NA,NA,NA,NA,NA,NA,NA,NA,NA,NA,683,2022-02-05_15h57.21.378,timed_fluency,2021.2.3,Win32,59.92329818,NA,NA,NA,NA,NA,NA,NA,NA,NA,18,1.5785,1,0,19,19,19,1,2 × 9 =,18,NA,NA
NA,NA,NA,NA,NA,NA,NA,NA,NA,NA,NA,NA,NA,NA,683,2022-02-05_15h57.21.378,timed_fluency,2021.2.3,Win32,59.92329818,NA,NA,NA,NA,NA,NA,NA,NA,NA,71,1.6484,0,0,20,20,20,1,9 × 8 =,72,NA,NA
NA,NA,NA,NA,NA,NA,NA,NA,NA,NA,NA,NA,NA,NA,683,2022-02-05_15h57.21.378,timed_fluency,2021.2.3,Win32,59.92329818,NA,NA,NA,NA,NA,NA,NA,NA,NA,42,3.8195,1,0,21,21,21,1,7 × 6 =,42,NA,NA
NA,NA,NA,NA,NA,NA,NA,NA,NA,NA,NA,NA,NA,NA,683,2022-02-05_15h57.21.378,timed_fluency,2021.2.3,Win32,59.92329818,NA,NA,NA,NA,NA,NA,NA,NA,NA,54,2.3123,1,0,22,22,22,1,6 × 9 =,54,NA,NA
NA,NA,NA,NA,NA,NA,NA,NA,NA,NA,NA,NA,NA,NA,683,2022-02-05_15h57.21.378,timed_fluency,2021.2.3,Win32,59.92329818,NA,NA,NA,NA,NA,NA,NA,NA,NA,45,1.5818,1,0,23,23,23,1,9 × 5 =,45,NA,NA
NA,NA,NA,NA,NA,NA,NA,NA,NA,NA,NA,NA,NA,NA,683,2022-02-05_15h57.21.378,timed_fluency,2021.2.3,Win32,59.92329818,NA,NA,NA,NA,NA,NA,NA,NA,NA,56,2.3817,1,0,24,24,24,1,8 × 7 =,56,NA,NA
NA,NA,NA,NA,NA,NA,NA,NA,NA,NA,NA,NA,NA,NA,683,2022-02-05_15h57.21.378,timed_fluency,2021.2.3,Win32,59.92329818,NA,NA,NA,NA,NA,NA,NA,NA,NA,36,1.9002,1,0,25,25,25,1,6 × 6 =,36,NA,NA
NA,NA,NA,NA,NA,NA,NA,NA,NA,NA,NA,NA,NA,NA,683,2022-02-05_15h57.21.378,timed_fluency,2021.2.3,Win32,59.92329818,NA,NA,NA,NA,NA,NA,NA,NA,NA,35,2.3815,1,0,26,26,26,1,5 × 7 =,35,NA,NA
NA,NA,NA,NA,NA,NA,NA,NA,NA,NA,NA,NA,NA,NA,683,2022-02-05_15h57.21.378,timed_fluency,2021.2.3,Win32,59.92329818,NA,NA,NA,NA,NA,NA,NA,NA,NA,36,3.0813,1,0,27,27,27,1,4 × 9 =,36,NA,NA
NA,NA,NA,NA,NA,NA,NA,NA,NA,NA,NA,NA,NA,NA,683,2022-02-05_15h57.21.378,timed_fluency,2021.2.3,Win32,59.92329818,NA,NA,NA,NA,NA,NA,NA,NA,NA,48,2.998,1,0,28,28,28,1,8 × 6 =,48,NA,NA
NA,NA,NA,NA,NA,NA,NA,NA,NA,NA,NA,NA,NA,NA,683,2022-02-05_15h57.21.378,timed_fluency,2021.2.3,Win32,59.92329818,NA,NA,NA,NA,NA,NA,NA,NA,NA,56,1.6669,0,0,29,29,29,1,9 × 7 =,63,NA,NA
NA,NA,NA,NA,NA,NA,NA,NA,NA,NA,NA,NA,NA,NA,683,2022-02-05_15h57.21.378,timed_fluency,2021.2.3,Win32,59.92329818,NA,NA,NA,NA,NA,NA,NA,NA,NA,12,1.7989,1,0,30,30,30,1,4 × 3 =,12,NA,NA
NA,NA,NA,NA,NA,NA,NA,NA,NA,NA,NA,NA,NA,NA,683,2022-02-05_15h57.21.378,timed_fluency,2021.2.3,Win32,59.92329818,NA,NA,NA,NA,NA,NA,NA,NA,NA,25,1.9653,1,0,31,31,31,1,5 × 5 =,25,NA,NA
NA,NA,NA,NA,NA,NA,NA,NA,NA,NA,NA,NA,NA,NA,683,2022-02-05_15h57.21.378,timed_fluency,2021.2.3,Win32,59.92329818,NA,NA,NA,NA,NA,NA,NA,NA,NA,6,1.2322,1,0,32,32,32,1,3 × 2 =,6,NA,NA
NA,NA,NA,NA,NA,NA,NA,NA,NA,NA,NA,NA,NA,NA,683,2022-02-05_15h57.21.378,timed_fluency,2021.2.3,Win32,59.92329818,NA,NA,NA,NA,NA,NA,NA,NA,NA,20,1.4819,1,0,33,33,33,1,5 × 4 =,20,NA,NA
NA,NA,NA,NA,NA,NA,NA,NA,NA,NA,NA,NA,NA,NA,683,2022-02-05_15h57.21.378,timed_fluency,2021.2.3,Win32,59.92329818,NA,NA,NA,NA,NA,NA,NA,NA,NA,8,1.8318,1,0,34,34,34,1,4 × 2 =,8,NA,NA
NA,NA,NA,NA,NA,NA,NA,NA,NA,NA,NA,NA,NA,NA,683,2022-02-05_15h57.21.378,timed_fluency,2021.2.3,Win32,59.92329818,NA,NA,NA,NA,NA,NA,NA,NA,NA,12,1.332,1,0,35,35,35,1,2 × 6 =,12,NA,NA
NA,NA,NA,NA,NA,NA,NA,NA,NA,NA,NA,NA,NA,NA,683,2022-02-05_15h57.21.378,timed_fluency,2021.2.3,Win32,59.92329818,NA,NA,NA,NA,NA,NA,NA,NA,NA,15,1.332,1,0,36,36,36,1,3 × 5 =,15,NA,NA
NA,NA,NA,NA,NA,NA,NA,NA,NA,NA,NA,NA,NA,NA,683,2022-02-05_15h57.21.378,timed_fluency,2021.2.3,Win32,59.92329818,NA,NA,NA,NA,NA,NA,NA,NA,NA,18,2.4485,1,0,37,37,37,1,6 × 3 =,18,NA,NA
NA,NA,NA,NA,NA,NA,NA,NA,NA,NA,NA,NA,NA,NA,683,2022-02-05_15h57.21.378,timed_fluency,2021.2.3,Win32,59.92329818,NA,NA,NA,NA,NA,NA,NA,NA,NA,10,1.2986,1,0,38,38,38,1,2 × 5 =,10,NA,NA
NA,NA,NA,NA,NA,NA,NA,NA,NA,NA,NA,NA,NA,NA,683,2022-02-05_15h57.21.378,timed_fluency,2021.2.3,Win32,59.92329818,NA,NA,NA,NA,NA,NA,NA,NA,NA,32,1.5988,1,0,39,39,39,1,4 × 8 =,32,NA,NA
NA,NA,NA,NA,NA,NA,NA,NA,NA,NA,NA,NA,NA,NA,683,2022-02-05_15h57.21.378,timed_fluency,2021.2.3,Win32,59.92329818,NA,NA,NA,NA,NA,NA,NA,NA,NA,24,1.6984,1,0,40,40,40,1,3 × 8 =,24,NA,NA
NA,NA,NA,NA,NA,NA,NA,NA,NA,NA,NA,NA,NA,NA,683,2022-02-05_15h57.21.378,timed_fluency,2021.2.3,Win32,59.92329818,NA,NA,NA,NA,NA,NA,NA,NA,NA,30,1.8318,1,0,41,41,41,1,5 × 6 =,30,NA,NA
NA,NA,NA,NA,NA,NA,NA,NA,NA,NA,NA,NA,NA,NA,683,2022-02-05_15h57.21.378,timed_fluency,2021.2.3,Win32,59.92329818,NA,NA,NA,NA,NA,NA,NA,NA,NA,14,1.1989,1,0,42,42,42,1,2 × 7 =,14,NA,NA
NA,NA,NA,NA,NA,NA,NA,NA,NA,NA,NA,NA,NA,NA,683,2022-02-05_15h57.21.378,timed_fluency,2021.2.3,Win32,59.92329818,NA,NA,NA,NA,NA,NA,NA,NA,NA,24,2.2817,1,0,43,43,43,1,6 × 4 =,24,NA,NA
NA,NA,NA,NA,NA,NA,NA,NA,NA,NA,NA,NA,NA,NA,683,2022-02-05_15h57.21.378,timed_fluency,2021.2.3,Win32,59.92329818,NA,NA,NA,NA,NA,NA,NA,NA,NA,21,1.1656,1,0,44,44,44,1,3 × 7 =,21,NA,NA
NA,NA,NA,NA,NA,NA,NA,NA,NA,NA,NA,NA,NA,NA,683,2022-02-05_15h57.21.378,timed_fluency,2021.2.3,Win32,59.92329818,NA,NA,NA,NA,NA,NA,NA,NA,NA,81,1.6485,1,0,45,45,45,1,9 × 9 =,81,NA,NA
NA,NA,NA,NA,NA,NA,NA,NA,NA,NA,NA,NA,NA,NA,683,2022-02-05_15h57.21.378,timed_fluency,2021.2.3,Win32,59.92329818,NA,NA,NA,NA,NA,NA,NA,NA,NA,16,1.3822,1,0,46,46,46,1,8 × 2 =,16,NA,NA
NA,NA,NA,NA,NA,NA,NA,NA,NA,NA,NA,NA,NA,NA,683,2022-02-05_15h57.21.378,timed_fluency,2021.2.3,Win32,59.92329818,NA,NA,NA,NA,NA,NA,NA,NA,NA,48,1.5319,1,0,47,47,47,1,6 × 8 =,48,NA,NA
NA,NA,NA,NA,NA,NA,NA,NA,NA,NA,NA,NA,NA,NA,683,2022-02-05_15h57.21.378,timed_fluency,2021.2.3,Win32,59.92329818,NA,NA,NA,NA,NA,NA,NA,NA,NA,21,1.3821,0,0,48,48,48,1,7 × 4 =,28,NA,NA
NA,NA,NA,NA,NA,NA,NA,NA,NA,NA,NA,NA,NA,NA,683,2022-02-05_15h57.21.378,timed_fluency,2021.2.3,Win32,59.92329818,NA,NA,NA,NA,NA,NA,NA,NA,NA,18,1.2988,1,0,49,49,49,1,9 × 2 =,18,NA,NA
NA,NA,NA,NA,NA,NA,NA,NA,NA,NA,NA,NA,NA,NA,683,2022-02-05_15h57.21.378,timed_fluency,2021.2.3,Win32,59.92329818,NA,NA,NA,NA,NA,NA,NA,NA,NA,25,1.7152,0,0,50,50,50,1,7 × 5 =,35,NA,NA
NA,NA,NA,NA,NA,NA,NA,NA,NA,NA,NA,NA,NA,NA,683,2022-02-05_15h57.21.378,timed_fluency,2021.2.3,Win32,59.92329818,NA,NA,NA,NA,NA,NA,NA,NA,NA,NA,NA,0,0,51,51,51,1,9 × 4 =,36,NA,NA
NA,NA,NA,NA,NA,NA,NA,NA,NA,NA,NA,NA,NA,NA,683,2022-02-05_15h57.21.378,timed_fluency,2021.2.3,Win32,59.92329818,NA,NA,NA,NA,NA,NA,NA,NA,NA,NA,NA,NA,NA,NA,NA,NA,NA,NA,NA,space,5.7437
"[1366,657]",space,15.4775,space,19.2167,56,3.6943,1,0,0,0,26,1,56,684,2022-02-06_11h25.25.935,timed_fluency,2021.2.3,Win32,60.0060006,NA,NA,NA,NA,NA,NA,NA,NA,NA,NA,NA,NA,NA,NA,NA,NA,NA,NA,NA,NA,NA
NA,NA,NA,NA,NA,6,1.627,1,0,1,1,1,1,6,684,2022-02-06_11h25.25.935,timed_fluency,2021.2.3,Win32,60.0060006,NA,NA,NA,NA,NA,NA,NA,NA,NA,NA,NA,NA,NA,NA,NA,NA,NA,NA,NA,NA,NA
NA,NA,NA,NA,NA,35,1.8643,1,0,2,2,18,1,35,684,2022-02-06_11h25.25.935,timed_fluency,2021.2.3,Win32,60.0060006,NA,NA,NA,NA,NA,NA,NA,NA,NA,NA,NA,NA,NA,NA,NA,NA,NA,NA,NA,NA,NA
NA,NA,NA,NA,NA,42,1.5816,1,0,3,3,21,1,42,684,2022-02-06_11h25.25.935,timed_fluency,2021.2.3,Win32,60.0060006,NA,NA,NA,NA,NA,NA,NA,NA,NA,NA,NA,NA,NA,NA,NA,NA,NA,NA,NA,NA,NA
NA,NA,NA,NA,NA,40,2.2187,1,0,4,4,20,1,40,684,2022-02-06_11h25.25.935,timed_fluency,2021.2.3,Win32,60.0060006,NA,NA,NA,NA,NA,NA,NA,NA,NA,NA,NA,NA,NA,NA,NA,NA,NA,NA,NA,NA,NA
NA,NA,NA,NA,NA,49,1.7685,1,0,5,5,24,1,49,684,2022-02-06_11h25.25.935,timed_fluency,2021.2.3,Win32,60.0060006,NA,NA,NA,NA,NA,NA,NA,NA,NA,NA,NA,NA,NA,NA,NA,NA,NA,NA,NA,NA,NA
NA,NA,NA,NA,NA,28,1.8786,1,0,6,6,15,1,28,684,2022-02-06_11h25.25.935,timed_fluency,2021.2.3,Win32,60.0060006,NA,NA,NA,NA,NA,NA,NA,NA,NA,NA,NA,NA,NA,NA,NA,NA,NA,NA,NA,NA,NA
NA,NA,NA,NA,NA,72,1.95,1,0,7,7,29,1,72,684,2022-02-06_11h25.25.935,timed_fluency,2021.2.3,Win32,60.0060006,NA,NA,NA,NA,NA,NA,NA,NA,NA,NA,NA,NA,NA,NA,NA,NA,NA,NA,NA,NA,NA
NA,NA,NA,NA,NA,15,1.4637,1,0,8,8,7,1,15,684,2022-02-06_11h25.25.935,timed_fluency,2021.2.3,Win32,60.0060006,NA,NA,NA,NA,NA,NA,NA,NA,NA,NA,NA,NA,NA,NA,NA,NA,NA,NA,NA,NA,NA
NA,NA,NA,NA,NA,64,1.5509,1,0,9,9,28,1,64,684,2022-02-06_11h25.25.935,timed_fluency,2021.2.3,Win32,60.0060006,NA,NA,NA,NA,NA,NA,NA,NA,NA,NA,NA,NA,NA,NA,NA,NA,NA,NA,NA,NA,NA
NA,NA,NA,NA,NA,32,1.4588,1,0,10,10,17,1,32,684,2022-02-06_11h25.25.935,timed_fluency,2021.2.3,Win32,60.0060006,NA,NA,NA,NA,NA,NA,NA,NA,NA,NA,NA,NA,NA,NA,NA,NA,NA,NA,NA,NA,NA
NA,NA,NA,NA,NA,4,1.2634,1,0,11,11,0,1,4,684,2022-02-06_11h25.25.935,timed_fluency,2021.2.3,Win32,60.0060006,NA,NA,NA,NA,NA,NA,NA,NA,NA,NA,NA,NA,NA,NA,NA,NA,NA,NA,NA,NA,NA
NA,NA,NA,NA,NA,21,1.3503,1,0,12,12,11,1,21,684,2022-02-06_11h25.25.935,timed_fluency,2021.2.3,Win32,60.0060006,NA,NA,NA,NA,NA,NA,NA,NA,NA,NA,NA,NA,NA,NA,NA,NA,NA,NA,NA,NA,NA
NA,NA,NA,NA,NA,9,1.2314,1,0,13,13,3,1,9,684,2022-02-06_11h25.25.935,timed_fluency,2021.2.3,Win32,60.0060006,NA,NA,NA,NA,NA,NA,NA,NA,NA,NA,NA,NA,NA,NA,NA,NA,NA,NA,NA,NA,NA
NA,NA,NA,NA,NA,36,1.5816,1,0,14,14,19,1,36,684,2022-02-06_11h25.25.935,timed_fluency,2021.2.3,Win32,60.0060006,NA,NA,NA,NA,NA,NA,NA,NA,NA,NA,NA,NA,NA,NA,NA,NA,NA,NA,NA,NA,NA
NA,NA,NA,NA,NA,30,1.5154,1,0,15,15,16,1,30,684,2022-02-06_11h25.25.935,timed_fluency,2021.2.3,Win32,60.0060006,NA,NA,NA,NA,NA,NA,NA,NA,NA,NA,NA,NA,NA,NA,NA,NA,NA,NA,NA,NA,NA
NA,NA,NA,NA,NA,63,1.7819,1,0,16,16,27,1,63,684,2022-02-06_11h25.25.935,timed_fluency,2021.2.3,Win32,60.0060006,NA,NA,NA,NA,NA,NA,NA,NA,NA,NA,NA,NA,NA,NA,NA,NA,NA,NA,NA,NA,NA
NA,NA,NA,NA,NA,18,1.6155,1,0,17,17,9,1,18,684,2022-02-06_11h25.25.935,timed_fluency,2021.2.3,Win32,60.0060006,NA,NA,NA,NA,NA,NA,NA,NA,NA,NA,NA,NA,NA,NA,NA,NA,NA,NA,NA,NA,NA
NA,NA,NA,NA,NA,81,1.8486,1,0,18,18,30,1,81,684,2022-02-06_11h25.25.935,timed_fluency,2021.2.3,Win32,60.0060006,NA,NA,NA,NA,NA,NA,NA,NA,NA,NA,NA,NA,NA,NA,NA,NA,NA,NA,NA,NA,NA
NA,NA,NA,NA,NA,12,1.1819,1,0,19,19,5,1,12,684,2022-02-06_11h25.25.935,timed_fluency,2021.2.3,Win32,60.0060006,NA,NA,NA,NA,NA,NA,NA,NA,NA,NA,NA,NA,NA,NA,NA,NA,NA,NA,NA,NA,NA
NA,NA,NA,NA,NA,25,1.5319,1,0,20,20,13,1,25,684,2022-02-06_11h25.25.935,timed_fluency,2021.2.3,Win32,60.0060006,NA,NA,NA,NA,NA,NA,NA,NA,NA,NA,NA,NA,NA,NA,NA,NA,NA,NA,NA,NA,NA
NA,NA,NA,NA,NA,27,1.5842,1,0,21,21,14,1,27,684,2022-02-06_11h25.25.935,timed_fluency,2021.2.3,Win32,60.0060006,NA,NA,NA,NA,NA,NA,NA,NA,NA,NA,NA,NA,NA,NA,NA,NA,NA,NA,NA,NA,NA
NA,NA,NA,NA,NA,20,1.3963,1,0,22,22,10,1,20,684,2022-02-06_11h25.25.935,timed_fluency,2021.2.3,Win32,60.0060006,NA,NA,NA,NA,NA,NA,NA,NA,NA,NA,NA,NA,NA,NA,NA,NA,NA,NA,NA,NA,NA
NA,NA,NA,NA,NA,45,1.4519,1,0,23,23,22,1,45,684,2022-02-06_11h25.25.935,timed_fluency,2021.2.3,Win32,60.0060006,NA,NA,NA,NA,NA,NA,NA,NA,NA,NA,NA,NA,NA,NA,NA,NA,NA,NA,NA,NA,NA
NA,NA,NA,NA,NA,54,1.6479,1,0,24,24,25,1,54,684,2022-02-06_11h25.25.935,timed_fluency,2021.2.3,Win32,60.0060006,NA,NA,NA,NA,NA,NA,NA,NA,NA,NA,NA,NA,NA,NA,NA,NA,NA,NA,NA,NA,NA
NA,NA,NA,NA,NA,16,1.5822,1,0,25,25,8,1,16,684,2022-02-06_11h25.25.935,timed_fluency,2021.2.3,Win32,60.0060006,NA,NA,NA,NA,NA,NA,NA,NA,NA,NA,NA,NA,NA,NA,NA,NA,NA,NA,NA,NA,NA
NA,NA,NA,NA,NA,14,1.381,1,0,26,26,6,1,14,684,2022-02-06_11h25.25.935,timed_fluency,2021.2.3,Win32,60.0060006,NA,NA,NA,NA,NA,NA,NA,NA,NA,NA,NA,NA,NA,NA,NA,NA,NA,NA,NA,NA,NA
NA,NA,NA,NA,NA,48,2.5483,1,0,27,27,23,1,48,684,2022-02-06_11h25.25.935,timed_fluency,2021.2.3,Win32,60.0060006,NA,NA,NA,NA,NA,NA,NA,NA,NA,NA,NA,NA,NA,NA,NA,NA,NA,NA,NA,NA,NA
NA,NA,NA,NA,NA,8,1.3116,1,0,28,28,2,1,8,684,2022-02-06_11h25.25.935,timed_fluency,2021.2.3,Win32,60.0060006,NA,NA,NA,NA,NA,NA,NA,NA,NA,NA,NA,NA,NA,NA,NA,NA,NA,NA,NA,NA,NA
NA,NA,NA,NA,NA,24,1.6815,1,0,29,29,12,1,24,684,2022-02-06_11h25.25.935,timed_fluency,2021.2.3,Win32,60.0060006,NA,NA,NA,NA,NA,NA,NA,NA,NA,NA,NA,NA,NA,NA,NA,NA,NA,NA,NA,NA,NA
NA,NA,NA,NA,NA,10,1.3819,1,0,30,30,4,1,10,684,2022-02-06_11h25.25.935,timed_fluency,2021.2.3,Win32,60.0060006,NA,NA,NA,NA,NA,NA,NA,NA,NA,NA,NA,NA,NA,NA,NA,NA,NA,NA,NA,NA,NA
NA,NA,NA,NA,NA,NA,NA,NA,NA,NA,NA,NA,NA,NA,684,2022-02-06_11h25.25.935,timed_fluency,2021.2.3,Win32,60.0060006,0,0,0,0,1,typing.xlsx,1,NA,NA,NA,NA,NA,NA,NA,NA,NA,NA,NA,NA,NA,NA
NA,NA,NA,NA,NA,72,1.9828,1,0,0,0,29,1,72,684,2022-02-06_11h25.25.935,timed_fluency,2021.2.3,Win32,60.0060006,NA,NA,NA,NA,NA,NA,NA,NA,NA,NA,NA,NA,NA,NA,NA,NA,NA,NA,NA,NA,NA
NA,NA,NA,NA,NA,8,1.2819,1,0,1,1,2,1,8,684,2022-02-06_11h25.25.935,timed_fluency,2021.2.3,Win32,60.0060006,NA,NA,NA,NA,NA,NA,NA,NA,NA,NA,NA,NA,NA,NA,NA,NA,NA,NA,NA,NA,NA
NA,NA,NA,NA,NA,15,1.3489,1,0,2,2,7,1,15,684,2022-02-06_11h25.25.935,timed_fluency,2021.2.3,Win32,60.0060006,NA,NA,NA,NA,NA,NA,NA,NA,NA,NA,NA,NA,NA,NA,NA,NA,NA,NA,NA,NA,NA
NA,NA,NA,NA,NA,40,1.5818,1,0,3,3,20,1,40,684,2022-02-06_11h25.25.935,timed_fluency,2021.2.3,Win32,60.0060006,NA,NA,NA,NA,NA,NA,NA,NA,NA,NA,NA,NA,NA,NA,NA,NA,NA,NA,NA,NA,NA
NA,NA,NA,NA,NA,56,1.4488,1,0,4,4,26,1,56,684,2022-02-06_11h25.25.935,timed_fluency,2021.2.3,Win32,60.0060006,NA,NA,NA,NA,NA,NA,NA,NA,NA,NA,NA,NA,NA,NA,NA,NA,NA,NA,NA,NA,NA
NA,NA,NA,NA,NA,24,1.4316,1,0,5,5,12,1,24,684,2022-02-06_11h25.25.935,timed_fluency,2021.2.3,Win32,60.0060006,NA,NA,NA,NA,NA,NA,NA,NA,NA,NA,NA,NA,NA,NA,NA,NA,NA,NA,NA,NA,NA
NA,NA,NA,NA,NA,18,1.6671,1,0,6,6,9,1,18,684,2022-02-06_11h25.25.935,timed_fluency,2021.2.3,Win32,60.0060006,NA,NA,NA,NA,NA,NA,NA,NA,NA,NA,NA,NA,NA,NA,NA,NA,NA,NA,NA,NA,NA
NA,NA,NA,NA,NA,63,2.5669,1,0,7,7,27,1,63,684,2022-02-06_11h25.25.935,timed_fluency,2021.2.3,Win32,60.0060006,NA,NA,NA,NA,NA,NA,NA,NA,NA,NA,NA,NA,NA,NA,NA,NA,NA,NA,NA,NA,NA
NA,NA,NA,NA,NA,21,1.2949,1,0,8,8,11,1,21,684,2022-02-06_11h25.25.935,timed_fluency,2021.2.3,Win32,60.0060006,NA,NA,NA,NA,NA,NA,NA,NA,NA,NA,NA,NA,NA,NA,NA,NA,NA,NA,NA,NA,NA
NA,NA,NA,NA,NA,49,1.5157,1,0,9,9,24,1,49,684,2022-02-06_11h25.25.935,timed_fluency,2021.2.3,Win32,60.0060006,NA,NA,NA,NA,NA,NA,NA,NA,NA,NA,NA,NA,NA,NA,NA,NA,NA,NA,NA,NA,NA
NA,NA,NA,NA,NA,6,1.2147,1,0,10,10,1,1,6,684,2022-02-06_11h25.25.935,timed_fluency,2021.2.3,Win32,60.0060006,NA,NA,NA,NA,NA,NA,NA,NA,NA,NA,NA,NA,NA,NA,NA,NA,NA,NA,NA,NA,NA
NA,NA,NA,NA,NA,10,1.4986,1,0,11,11,4,1,10,684,2022-02-06_11h25.25.935,timed_fluency,2021.2.3,Win32,60.0060006,NA,NA,NA,NA,NA,NA,NA,NA,NA,NA,NA,NA,NA,NA,NA,NA,NA,NA,NA,NA,NA
NA,NA,NA,NA,NA,64,1.8164,1,0,12,12,28,1,64,684,2022-02-06_11h25.25.935,timed_fluency,2021.2.3,Win32,60.0060006,NA,NA,NA,NA,NA,NA,NA,NA,NA,NA,NA,NA,NA,NA,NA,NA,NA,NA,NA,NA,NA
NA,NA,NA,NA,NA,36,1.5336,1,0,13,13,19,1,36,684,2022-02-06_11h25.25.935,timed_fluency,2021.2.3,Win32,60.0060006,NA,NA,NA,NA,NA,NA,NA,NA,NA,NA,NA,NA,NA,NA,NA,NA,NA,NA,NA,NA,NA
NA,NA,NA,NA,NA,45,1.4621,1,0,14,14,22,1,45,684,2022-02-06_11h25.25.935,timed_fluency,2021.2.3,Win32,60.0060006,NA,NA,NA,NA,NA,NA,NA,NA,NA,NA,NA,NA,NA,NA,NA,NA,NA,NA,NA,NA,NA
NA,NA,NA,NA,NA,25,1.4989,1,0,15,15,13,1,25,684,2022-02-06_11h25.25.935,timed_fluency,2021.2.3,Win32,60.0060006,NA,NA,NA,NA,NA,NA,NA,NA,NA,NA,NA,NA,NA,NA,NA,NA,NA,NA,NA,NA,NA
NA,NA,NA,NA,NA,9,1.3323,1,0,16,16,3,1,9,684,2022-02-06_11h25.25.935,timed_fluency,2021.2.3,Win32,60.0060006,NA,NA,NA,NA,NA,NA,NA,NA,NA,NA,NA,NA,NA,NA,NA,NA,NA,NA,NA,NA,NA
NA,NA,NA,NA,NA,27,1.9647,1,0,17,17,14,1,27,684,2022-02-06_11h25.25.935,timed_fluency,2021.2.3,Win32,60.0060006,NA,NA,NA,NA,NA,NA,NA,NA,NA,NA,NA,NA,NA,NA,NA,NA,NA,NA,NA,NA,NA
NA,NA,NA,NA,NA,30,1.5319,1,0,18,18,16,1,30,684,2022-02-06_11h25.25.935,timed_fluency,2021.2.3,Win32,60.0060006,NA,NA,NA,NA,NA,NA,NA,NA,NA,NA,NA,NA,NA,NA,NA,NA,NA,NA,NA,NA,NA
NA,NA,NA,NA,NA,20,1.6148,1,0,19,19,10,1,20,684,2022-02-06_11h25.25.935,timed_fluency,2021.2.3,Win32,60.0060006,NA,NA,NA,NA,NA,NA,NA,NA,NA,NA,NA,NA,NA,NA,NA,NA,NA,NA,NA,NA,NA
NA,NA,NA,NA,NA,28,1.4654,1,0,20,20,15,1,28,684,2022-02-06_11h25.25.935,timed_fluency,2021.2.3,Win32,60.0060006,NA,NA,NA,NA,NA,NA,NA,NA,NA,NA,NA,NA,NA,NA,NA,NA,NA,NA,NA,NA,NA
NA,NA,NA,NA,NA,12,1.2153,1,0,21,21,5,1,12,684,2022-02-06_11h25.25.935,timed_fluency,2021.2.3,Win32,60.0060006,NA,NA,NA,NA,NA,NA,NA,NA,NA,NA,NA,NA,NA,NA,NA,NA,NA,NA,NA,NA,NA
NA,NA,NA,NA,NA,32,1.4324,1,0,22,22,17,1,32,684,2022-02-06_11h25.25.935,timed_fluency,2021.2.3,Win32,60.0060006,NA,NA,NA,NA,NA,NA,NA,NA,NA,NA,NA,NA,NA,NA,NA,NA,NA,NA,NA,NA,NA
NA,NA,NA,NA,NA,14,1.4154,1,0,23,23,6,1,14,684,2022-02-06_11h25.25.935,timed_fluency,2021.2.3,Win32,60.0060006,NA,NA,NA,NA,NA,NA,NA,NA,NA,NA,NA,NA,NA,NA,NA,NA,NA,NA,NA,NA,NA
NA,NA,NA,NA,NA,48,1.7485,1,0,24,24,23,1,48,684,2022-02-06_11h25.25.935,timed_fluency,2021.2.3,Win32,60.0060006,NA,NA,NA,NA,NA,NA,NA,NA,NA,NA,NA,NA,NA,NA,NA,NA,NA,NA,NA,NA,NA
NA,NA,NA,NA,NA,16,1.4152,1,0,25,25,8,1,16,684,2022-02-06_11h25.25.935,timed_fluency,2021.2.3,Win32,60.0060006,NA,NA,NA,NA,NA,NA,NA,NA,NA,NA,NA,NA,NA,NA,NA,NA,NA,NA,NA,NA,NA
NA,NA,NA,NA,NA,4,1.2655,1,0,26,26,0,1,4,684,2022-02-06_11h25.25.935,timed_fluency,2021.2.3,Win32,60.0060006,NA,NA,NA,NA,NA,NA,NA,NA,NA,NA,NA,NA,NA,NA,NA,NA,NA,NA,NA,NA,NA
NA,NA,NA,NA,NA,35,1.4655,1,0,27,27,18,1,35,684,2022-02-06_11h25.25.935,timed_fluency,2021.2.3,Win32,60.0060006,NA,NA,NA,NA,NA,NA,NA,NA,NA,NA,NA,NA,NA,NA,NA,NA,NA,NA,NA,NA,NA
NA,NA,NA,NA,NA,54,1.4318,1,0,28,28,25,1,54,684,2022-02-06_11h25.25.935,timed_fluency,2021.2.3,Win32,60.0060006,NA,NA,NA,NA,NA,NA,NA,NA,NA,NA,NA,NA,NA,NA,NA,NA,NA,NA,NA,NA,NA
NA,NA,NA,NA,NA,42,1.4348,1,0,29,29,21,1,42,684,2022-02-06_11h25.25.935,timed_fluency,2021.2.3,Win32,60.0060006,NA,NA,NA,NA,NA,NA,NA,NA,NA,NA,NA,NA,NA,NA,NA,NA,NA,NA,NA,NA,NA
NA,NA,NA,NA,NA,8,1.5302,0,0,30,30,30,1,81,684,2022-02-06_11h25.25.935,timed_fluency,2021.2.3,Win32,60.0060006,NA,NA,NA,NA,NA,NA,NA,NA,NA,NA,NA,NA,NA,NA,NA,NA,NA,NA,NA,NA,NA
NA,NA,NA,NA,NA,NA,NA,NA,NA,NA,NA,NA,NA,NA,684,2022-02-06_11h25.25.935,timed_fluency,2021.2.3,Win32,60.0060006,0,1,1,1,1,typing.xlsx,2,NA,NA,NA,NA,NA,NA,NA,NA,NA,NA,NA,NA,NA,NA
NA,NA,NA,NA,NA,NA,NA,NA,NA,NA,NA,NA,NA,NA,684,2022-02-06_11h25.25.935,timed_fluency,2021.2.3,Win32,60.0060006,NA,NA,NA,NA,NA,NA,NA,space,12.3589,6,3.8294,1,0,0,0,0,1,2 × 3 =,6,NA,NA
NA,NA,NA,NA,NA,NA,NA,NA,NA,NA,NA,NA,NA,NA,684,2022-02-06_11h25.25.935,timed_fluency,2021.2.3,Win32,60.0060006,NA,NA,NA,NA,NA,NA,NA,NA,NA,40,3.618,1,0,1,1,1,1,5 × 8 =,40,NA,NA
NA,NA,NA,NA,NA,NA,NA,NA,NA,NA,NA,NA,NA,NA,684,2022-02-06_11h25.25.935,timed_fluency,2021.2.3,Win32,60.0060006,NA,NA,NA,NA,NA,NA,NA,NA,NA,12,1.8772,1,0,2,2,2,1,3 × 4 =,12,NA,NA
NA,NA,NA,NA,NA,NA,NA,NA,NA,NA,NA,NA,NA,NA,684,2022-02-06_11h25.25.935,timed_fluency,2021.2.3,Win32,60.0060006,NA,NA,NA,NA,NA,NA,NA,NA,NA,15,1.6787,1,0,3,3,3,1,5 × 3 =,15,NA,NA
NA,NA,NA,NA,NA,NA,NA,NA,NA,NA,NA,NA,NA,NA,684,2022-02-06_11h25.25.935,timed_fluency,2021.2.3,Win32,60.0060006,NA,NA,NA,NA,NA,NA,NA,NA,NA,8,2.0147,1,0,4,4,4,1,2 × 4 =,8,NA,NA
NA,NA,NA,NA,NA,NA,NA,NA,NA,NA,NA,NA,NA,NA,684,2022-02-06_11h25.25.935,timed_fluency,2021.2.3,Win32,60.0060006,NA,NA,NA,NA,NA,NA,NA,NA,NA,4,1.3988,1,0,5,5,5,1,2 × 2 =,4,NA,NA
NA,NA,NA,NA,NA,NA,NA,NA,NA,NA,NA,NA,NA,NA,684,2022-02-06_11h25.25.935,timed_fluency,2021.2.3,Win32,60.0060006,NA,NA,NA,NA,NA,NA,NA,NA,NA,20,2.1983,1,0,6,6,6,1,4 × 5 =,20,NA,NA
NA,NA,NA,NA,NA,NA,NA,NA,NA,NA,NA,NA,NA,NA,684,2022-02-06_11h25.25.935,timed_fluency,2021.2.3,Win32,60.0060006,NA,NA,NA,NA,NA,NA,NA,NA,NA,9,1.4794,1,0,7,7,7,1,3 × 3 =,9,NA,NA
NA,NA,NA,NA,NA,NA,NA,NA,NA,NA,NA,NA,NA,NA,684,2022-02-06_11h25.25.935,timed_fluency,2021.2.3,Win32,60.0060006,NA,NA,NA,NA,NA,NA,NA,NA,NA,10,2.6543,1,0,8,8,8,1,5 × 2 =,10,NA,NA
NA,NA,NA,NA,NA,NA,NA,NA,NA,NA,NA,NA,NA,NA,684,2022-02-06_11h25.25.935,timed_fluency,2021.2.3,Win32,60.0060006,NA,NA,NA,NA,NA,NA,NA,NA,NA,16,1.9822,1,0,9,9,9,1,4 × 4 =,16,NA,NA
NA,NA,NA,NA,NA,NA,NA,NA,NA,NA,NA,NA,NA,NA,684,2022-02-06_11h25.25.935,timed_fluency,2021.2.3,Win32,60.0060006,NA,NA,NA,NA,NA,NA,NA,NA,NA,24,2.1638,1,0,10,10,10,1,8 × 3 =,24,NA,NA
NA,NA,NA,NA,NA,NA,NA,NA,NA,NA,NA,NA,NA,NA,684,2022-02-06_11h25.25.935,timed_fluency,2021.2.3,Win32,60.0060006,NA,NA,NA,NA,NA,NA,NA,NA,NA,30,2.227,1,0,11,11,11,1,6 × 5 =,30,NA,NA
NA,NA,NA,NA,NA,NA,NA,NA,NA,NA,NA,NA,NA,NA,684,2022-02-06_11h25.25.935,timed_fluency,2021.2.3,Win32,60.0060006,NA,NA,NA,NA,NA,NA,NA,NA,NA,14,1.8555,1,0,12,12,12,1,7 × 2 =,14,NA,NA
NA,NA,NA,NA,NA,NA,NA,NA,NA,NA,NA,NA,NA,NA,684,2022-02-06_11h25.25.935,timed_fluency,2021.2.3,Win32,60.0060006,NA,NA,NA,NA,NA,NA,NA,NA,NA,18,2.2416,0,0,13,13,13,1,3 × 9 =,27,NA,NA
NA,NA,NA,NA,NA,NA,NA,NA,NA,NA,NA,NA,NA,NA,684,2022-02-06_11h25.25.935,timed_fluency,2021.2.3,Win32,60.0060006,NA,NA,NA,NA,NA,NA,NA,NA,NA,16,3.4815,1,0,14,14,14,1,2 × 8 =,16,NA,NA
NA,NA,NA,NA,NA,NA,NA,NA,NA,NA,NA,NA,NA,NA,684,2022-02-06_11h25.25.935,timed_fluency,2021.2.3,Win32,60.0060006,NA,NA,NA,NA,NA,NA,NA,NA,NA,24,2.5492,1,0,15,15,15,1,4 × 6 =,24,NA,NA
NA,NA,NA,NA,NA,NA,NA,NA,NA,NA,NA,NA,NA,NA,684,2022-02-06_11h25.25.935,timed_fluency,2021.2.3,Win32,60.0060006,NA,NA,NA,NA,NA,NA,NA,NA,NA,2,4.6466,0,0,16,16,16,1,7 × 3 =,21,NA,NA
NA,NA,NA,NA,NA,NA,NA,NA,NA,NA,NA,NA,NA,NA,684,2022-02-06_11h25.25.935,timed_fluency,2021.2.3,Win32,60.0060006,NA,NA,NA,NA,NA,NA,NA,NA,NA,27,7.5135,1,0,17,17,17,1,9 × 3 =,27,NA,NA
NA,NA,NA,NA,NA,NA,NA,NA,NA,NA,NA,NA,NA,NA,684,2022-02-06_11h25.25.935,timed_fluency,2021.2.3,Win32,60.0060006,NA,NA,NA,NA,NA,NA,NA,NA,NA,28,3.1328,1,0,18,18,18,1,4 × 7 =,28,NA,NA
NA,NA,NA,NA,NA,NA,NA,NA,NA,NA,NA,NA,NA,NA,684,2022-02-06_11h25.25.935,timed_fluency,2021.2.3,Win32,60.0060006,NA,NA,NA,NA,NA,NA,NA,NA,NA,18,2.3002,1,0,19,19,19,1,2 × 9 =,18,NA,NA
NA,NA,NA,NA,NA,NA,NA,NA,NA,NA,NA,NA,NA,NA,684,2022-02-06_11h25.25.935,timed_fluency,2021.2.3,Win32,60.0060006,NA,NA,NA,NA,NA,NA,NA,NA,NA,72,3.0438,1,0,20,20,20,1,9 × 8 =,72,NA,NA
NA,NA,NA,NA,NA,NA,NA,NA,NA,NA,NA,NA,NA,NA,684,2022-02-06_11h25.25.935,timed_fluency,2021.2.3,Win32,60.0060006,NA,NA,NA,NA,NA,NA,NA,NA,NA,56,2.7977,0,0,21,21,21,1,7 × 6 =,42,NA,NA
NA,NA,NA,NA,NA,NA,NA,NA,NA,NA,NA,NA,NA,NA,684,2022-02-06_11h25.25.935,timed_fluency,2021.2.3,Win32,60.0060006,NA,NA,NA,NA,NA,NA,NA,NA,NA,54,6.2186,1,0,22,22,22,1,6 × 9 =,54,NA,NA
NA,NA,NA,NA,NA,NA,NA,NA,NA,NA,NA,NA,NA,NA,684,2022-02-06_11h25.25.935,timed_fluency,2021.2.3,Win32,60.0060006,NA,NA,NA,NA,NA,NA,NA,NA,NA,45,2.1138,1,0,23,23,23,1,9 × 5 =,45,NA,NA
NA,NA,NA,NA,NA,NA,NA,NA,NA,NA,NA,NA,NA,NA,684,2022-02-06_11h25.25.935,timed_fluency,2021.2.3,Win32,60.0060006,NA,NA,NA,NA,NA,NA,NA,NA,NA,56,1.9983,1,0,24,24,24,1,8 × 7 =,56,NA,NA
NA,NA,NA,NA,NA,NA,NA,NA,NA,NA,NA,NA,NA,NA,684,2022-02-06_11h25.25.935,timed_fluency,2021.2.3,Win32,60.0060006,NA,NA,NA,NA,NA,NA,NA,NA,NA,36,2.2653,1,0,25,25,25,1,6 × 6 =,36,NA,NA
NA,NA,NA,NA,NA,NA,NA,NA,NA,NA,NA,NA,NA,NA,684,2022-02-06_11h25.25.935,timed_fluency,2021.2.3,Win32,60.0060006,NA,NA,NA,NA,NA,NA,NA,NA,NA,35,2.2515,1,0,26,26,26,1,5 × 7 =,35,NA,NA
NA,NA,NA,NA,NA,NA,NA,NA,NA,NA,NA,NA,NA,NA,684,2022-02-06_11h25.25.935,timed_fluency,2021.2.3,Win32,60.0060006,NA,NA,NA,NA,NA,NA,NA,NA,NA,36,7.2607,1,0,27,27,27,1,4 × 9 =,36,NA,NA
NA,NA,NA,NA,NA,NA,NA,NA,NA,NA,NA,NA,NA,NA,684,2022-02-06_11h25.25.935,timed_fluency,2021.2.3,Win32,60.0060006,NA,NA,NA,NA,NA,NA,NA,NA,NA,42,2.3451,0,0,28,28,28,1,8 × 6 =,48,NA,NA
NA,NA,NA,NA,NA,NA,NA,NA,NA,NA,NA,NA,NA,NA,684,2022-02-06_11h25.25.935,timed_fluency,2021.2.3,Win32,60.0060006,NA,NA,NA,NA,NA,NA,NA,NA,NA,56,1.9817,0,0,29,29,29,1,9 × 7 =,63,NA,NA
NA,NA,NA,NA,NA,NA,NA,NA,NA,NA,NA,NA,NA,NA,684,2022-02-06_11h25.25.935,timed_fluency,2021.2.3,Win32,60.0060006,NA,NA,NA,NA,NA,NA,NA,NA,NA,12,1.6817,1,0,30,30,30,1,4 × 3 =,12,NA,NA
NA,NA,NA,NA,NA,NA,NA,NA,NA,NA,NA,NA,NA,NA,684,2022-02-06_11h25.25.935,timed_fluency,2021.2.3,Win32,60.0060006,NA,NA,NA,NA,NA,NA,NA,NA,NA,NA,NA,0,0,31,31,31,1,5 × 5 =,25,NA,NA
NA,NA,NA,NA,NA,NA,NA,NA,NA,NA,NA,NA,NA,NA,684,2022-02-06_11h25.25.935,timed_fluency,2021.2.3,Win32,60.0060006,NA,NA,NA,NA,NA,NA,NA,NA,NA,NA,NA,NA,NA,NA,NA,NA,NA,NA,NA,space,4.6614
"[1536,754]",space,20.9177,space,16.5903,45,4.3736,1,0,0,0,22,1,45,685,2022-02-07_16h49.01.410,timed_fluency,2021.2.3,Win32,60.04202942,NA,NA,NA,NA,NA,NA,NA,NA,NA,NA,NA,NA,NA,NA,NA,NA,NA,NA,NA,NA,NA
NA,NA,NA,NA,NA,15,1.8491,1,0,1,1,7,1,15,685,2022-02-07_16h49.01.410,timed_fluency,2021.2.3,Win32,60.04202942,NA,NA,NA,NA,NA,NA,NA,NA,NA,NA,NA,NA,NA,NA,NA,NA,NA,NA,NA,NA,NA
NA,NA,NA,NA,NA,54,1.6163,1,0,2,2,25,1,54,685,2022-02-07_16h49.01.410,timed_fluency,2021.2.3,Win32,60.04202942,NA,NA,NA,NA,NA,NA,NA,NA,NA,NA,NA,NA,NA,NA,NA,NA,NA,NA,NA,NA,NA
NA,NA,NA,NA,NA,35,2.133,1,0,3,3,18,1,35,685,2022-02-07_16h49.01.410,timed_fluency,2021.2.3,Win32,60.04202942,NA,NA,NA,NA,NA,NA,NA,NA,NA,NA,NA,NA,NA,NA,NA,NA,NA,NA,NA,NA,NA
NA,NA,NA,NA,NA,28,1.9833,1,0,4,4,15,1,28,685,2022-02-07_16h49.01.410,timed_fluency,2021.2.3,Win32,60.04202942,NA,NA,NA,NA,NA,NA,NA,NA,NA,NA,NA,NA,NA,NA,NA,NA,NA,NA,NA,NA,NA
NA,NA,NA,NA,NA,24,1.5496,1,0,5,5,12,1,24,685,2022-02-07_16h49.01.410,timed_fluency,2021.2.3,Win32,60.04202942,NA,NA,NA,NA,NA,NA,NA,NA,NA,NA,NA,NA,NA,NA,NA,NA,NA,NA,NA,NA,NA
NA,NA,NA,NA,NA,6,2.066,1,0,6,6,1,1,6,685,2022-02-07_16h49.01.410,timed_fluency,2021.2.3,Win32,60.04202942,NA,NA,NA,NA,NA,NA,NA,NA,NA,NA,NA,NA,NA,NA,NA,NA,NA,NA,NA,NA,NA
NA,NA,NA,NA,NA,72,1.7995,1,0,7,7,29,1,72,685,2022-02-07_16h49.01.410,timed_fluency,2021.2.3,Win32,60.04202942,NA,NA,NA,NA,NA,NA,NA,NA,NA,NA,NA,NA,NA,NA,NA,NA,NA,NA,NA,NA,NA
NA,NA,NA,NA,NA,12,1.3329,1,0,8,8,5,1,12,685,2022-02-07_16h49.01.410,timed_fluency,2021.2.3,Win32,60.04202942,NA,NA,NA,NA,NA,NA,NA,NA,NA,NA,NA,NA,NA,NA,NA,NA,NA,NA,NA,NA,NA
NA,NA,NA,NA,NA,4,1.2325,1,0,9,9,0,1,4,685,2022-02-07_16h49.01.410,timed_fluency,2021.2.3,Win32,60.04202942,NA,NA,NA,NA,NA,NA,NA,NA,NA,NA,NA,NA,NA,NA,NA,NA,NA,NA,NA,NA,NA
NA,NA,NA,NA,NA,42,2.0663,1,0,10,10,21,1,42,685,2022-02-07_16h49.01.410,timed_fluency,2021.2.3,Win32,60.04202942,NA,NA,NA,NA,NA,NA,NA,NA,NA,NA,NA,NA,NA,NA,NA,NA,NA,NA,NA,NA,NA
NA,NA,NA,NA,NA,49,2.0331,1,0,11,11,24,1,49,685,2022-02-07_16h49.01.410,timed_fluency,2021.2.3,Win32,60.04202942,NA,NA,NA,NA,NA,NA,NA,NA,NA,NA,NA,NA,NA,NA,NA,NA,NA,NA,NA,NA,NA
NA,NA,NA,NA,NA,10,1.5996,1,0,12,12,4,1,10,685,2022-02-07_16h49.01.410,timed_fluency,2021.2.3,Win32,60.04202942,NA,NA,NA,NA,NA,NA,NA,NA,NA,NA,NA,NA,NA,NA,NA,NA,NA,NA,NA,NA,NA
NA,NA,NA,NA,NA,36,1.7329,1,0,13,13,19,1,36,685,2022-02-07_16h49.01.410,timed_fluency,2021.2.3,Win32,60.04202942,NA,NA,NA,NA,NA,NA,NA,NA,NA,NA,NA,NA,NA,NA,NA,NA,NA,NA,NA,NA,NA
NA,NA,NA,NA,NA,8,1.5164,1,0,14,14,2,1,8,685,2022-02-07_16h49.01.410,timed_fluency,2021.2.3,Win32,60.04202942,NA,NA,NA,NA,NA,NA,NA,NA,NA,NA,NA,NA,NA,NA,NA,NA,NA,NA,NA,NA,NA
NA,NA,NA,NA,NA,18,1.6828,1,0,15,15,9,1,18,685,2022-02-07_16h49.01.410,timed_fluency,2021.2.3,Win32,60.04202942,NA,NA,NA,NA,NA,NA,NA,NA,NA,NA,NA,NA,NA,NA,NA,NA,NA,NA,NA,NA,NA
NA,NA,NA,NA,NA,9,1.2829,1,0,16,16,3,1,9,685,2022-02-07_16h49.01.410,timed_fluency,2021.2.3,Win32,60.04202942,NA,NA,NA,NA,NA,NA,NA,NA,NA,NA,NA,NA,NA,NA,NA,NA,NA,NA,NA,NA,NA
NA,NA,NA,NA,NA,21,1.4501,1,0,17,17,11,1,21,685,2022-02-07_16h49.01.410,timed_fluency,2021.2.3,Win32,60.04202942,NA,NA,NA,NA,NA,NA,NA,NA,NA,NA,NA,NA,NA,NA,NA,NA,NA,NA,NA,NA,NA
NA,NA,NA,NA,NA,14,1.5992,1,0,18,18,6,1,14,685,2022-02-07_16h49.01.410,timed_fluency,2021.2.3,Win32,60.04202942,NA,NA,NA,NA,NA,NA,NA,NA,NA,NA,NA,NA,NA,NA,NA,NA,NA,NA,NA,NA,NA
NA,NA,NA,NA,NA,16,1.5336,1,0,19,19,8,1,16,685,2022-02-07_16h49.01.410,timed_fluency,2021.2.3,Win32,60.04202942,NA,NA,NA,NA,NA,NA,NA,NA,NA,NA,NA,NA,NA,NA,NA,NA,NA,NA,NA,NA,NA
NA,NA,NA,NA,NA,81,1.616,1,0,20,20,30,1,81,685,2022-02-07_16h49.01.410,timed_fluency,2021.2.3,Win32,60.04202942,NA,NA,NA,NA,NA,NA,NA,NA,NA,NA,NA,NA,NA,NA,NA,NA,NA,NA,NA,NA,NA
NA,NA,NA,NA,NA,27,1.7993,1,0,21,21,14,1,27,685,2022-02-07_16h49.01.410,timed_fluency,2021.2.3,Win32,60.04202942,NA,NA,NA,NA,NA,NA,NA,NA,NA,NA,NA,NA,NA,NA,NA,NA,NA,NA,NA,NA,NA
NA,NA,NA,NA,NA,48,3.283,1,0,22,22,23,1,48,685,2022-02-07_16h49.01.410,timed_fluency,2021.2.3,Win32,60.04202942,NA,NA,NA,NA,NA,NA,NA,NA,NA,NA,NA,NA,NA,NA,NA,NA,NA,NA,NA,NA,NA
NA,NA,NA,NA,NA,25,1.5444,1,0,23,23,13,1,25,685,2022-02-07_16h49.01.410,timed_fluency,2021.2.3,Win32,60.04202942,NA,NA,NA,NA,NA,NA,NA,NA,NA,NA,NA,NA,NA,NA,NA,NA,NA,NA,NA,NA,NA
NA,NA,NA,NA,NA,56,1.7499,1,0,24,24,26,1,56,685,2022-02-07_16h49.01.410,timed_fluency,2021.2.3,Win32,60.04202942,NA,NA,NA,NA,NA,NA,NA,NA,NA,NA,NA,NA,NA,NA,NA,NA,NA,NA,NA,NA,NA
NA,NA,NA,NA,NA,30,1.5161,1,0,25,25,16,1,30,685,2022-02-07_16h49.01.410,timed_fluency,2021.2.3,Win32,60.04202942,NA,NA,NA,NA,NA,NA,NA,NA,NA,NA,NA,NA,NA,NA,NA,NA,NA,NA,NA,NA,NA
NA,NA,NA,NA,NA,63,1.7162,1,0,26,26,27,1,63,685,2022-02-07_16h49.01.410,timed_fluency,2021.2.3,Win32,60.04202942,NA,NA,NA,NA,NA,NA,NA,NA,NA,NA,NA,NA,NA,NA,NA,NA,NA,NA,NA,NA,NA
NA,NA,NA,NA,NA,32,1.8162,1,0,27,27,17,1,32,685,2022-02-07_16h49.01.410,timed_fluency,2021.2.3,Win32,60.04202942,NA,NA,NA,NA,NA,NA,NA,NA,NA,NA,NA,NA,NA,NA,NA,NA,NA,NA,NA,NA,NA
NA,NA,NA,NA,NA,40,1.6498,1,0,28,28,20,1,40,685,2022-02-07_16h49.01.410,timed_fluency,2021.2.3,Win32,60.04202942,NA,NA,NA,NA,NA,NA,NA,NA,NA,NA,NA,NA,NA,NA,NA,NA,NA,NA,NA,NA,NA
NA,NA,NA,NA,NA,20,3.3995,1,0,29,29,10,1,20,685,2022-02-07_16h49.01.410,timed_fluency,2021.2.3,Win32,60.04202942,NA,NA,NA,NA,NA,NA,NA,NA,NA,NA,NA,NA,NA,NA,NA,NA,NA,NA,NA,NA,NA
NA,NA,NA,NA,NA,64,1.85,1,0,30,30,28,1,64,685,2022-02-07_16h49.01.410,timed_fluency,2021.2.3,Win32,60.04202942,NA,NA,NA,NA,NA,NA,NA,NA,NA,NA,NA,NA,NA,NA,NA,NA,NA,NA,NA,NA,NA
NA,NA,NA,NA,NA,NA,NA,NA,NA,NA,NA,NA,NA,NA,685,2022-02-07_16h49.01.410,timed_fluency,2021.2.3,Win32,60.04202942,0,0,0,0,1,typing.xlsx,1,NA,NA,NA,NA,NA,NA,NA,NA,NA,NA,NA,NA,NA,NA
NA,NA,NA,NA,NA,45,1.81,1,0,0,0,22,1,45,685,2022-02-07_16h49.01.410,timed_fluency,2021.2.3,Win32,60.04202942,NA,NA,NA,NA,NA,NA,NA,NA,NA,NA,NA,NA,NA,NA,NA,NA,NA,NA,NA,NA,NA
NA,NA,NA,NA,NA,64,1.5991,1,0,1,1,28,1,64,685,2022-02-07_16h49.01.410,timed_fluency,2021.2.3,Win32,60.04202942,NA,NA,NA,NA,NA,NA,NA,NA,NA,NA,NA,NA,NA,NA,NA,NA,NA,NA,NA,NA,NA
NA,NA,NA,NA,NA,72,1.6163,1,0,2,2,29,1,72,685,2022-02-07_16h49.01.410,timed_fluency,2021.2.3,Win32,60.04202942,NA,NA,NA,NA,NA,NA,NA,NA,NA,NA,NA,NA,NA,NA,NA,NA,NA,NA,NA,NA,NA
NA,NA,NA,NA,NA,6,1.9174,1,0,3,3,1,1,6,685,2022-02-07_16h49.01.410,timed_fluency,2021.2.3,Win32,60.04202942,NA,NA,NA,NA,NA,NA,NA,NA,NA,NA,NA,NA,NA,NA,NA,NA,NA,NA,NA,NA,NA
NA,NA,NA,NA,NA,20,1.7985,1,0,4,4,10,1,20,685,2022-02-07_16h49.01.410,timed_fluency,2021.2.3,Win32,60.04202942,NA,NA,NA,NA,NA,NA,NA,NA,NA,NA,NA,NA,NA,NA,NA,NA,NA,NA,NA,NA,NA
NA,NA,NA,NA,NA,32,1.4163,1,0,5,5,17,1,32,685,2022-02-07_16h49.01.410,timed_fluency,2021.2.3,Win32,60.04202942,NA,NA,NA,NA,NA,NA,NA,NA,NA,NA,NA,NA,NA,NA,NA,NA,NA,NA,NA,NA,NA
NA,NA,NA,NA,NA,25,3.0661,1,0,6,6,13,1,25,685,2022-02-07_16h49.01.410,timed_fluency,2021.2.3,Win32,60.04202942,NA,NA,NA,NA,NA,NA,NA,NA,NA,NA,NA,NA,NA,NA,NA,NA,NA,NA,NA,NA,NA
NA,NA,NA,NA,NA,42,1.7828,1,0,7,7,21,1,42,685,2022-02-07_16h49.01.410,timed_fluency,2021.2.3,Win32,60.04202942,NA,NA,NA,NA,NA,NA,NA,NA,NA,NA,NA,NA,NA,NA,NA,NA,NA,NA,NA,NA,NA
NA,NA,NA,NA,NA,10,2.1328,1,0,8,8,4,1,10,685,2022-02-07_16h49.01.410,timed_fluency,2021.2.3,Win32,60.04202942,NA,NA,NA,NA,NA,NA,NA,NA,NA,NA,NA,NA,NA,NA,NA,NA,NA,NA,NA,NA,NA
NA,NA,NA,NA,NA,36,2.0658,1,0,9,9,19,1,36,685,2022-02-07_16h49.01.410,timed_fluency,2021.2.3,Win32,60.04202942,NA,NA,NA,NA,NA,NA,NA,NA,NA,NA,NA,NA,NA,NA,NA,NA,NA,NA,NA,NA,NA
NA,NA,NA,NA,NA,21,1.2664,1,0,10,10,11,1,21,685,2022-02-07_16h49.01.410,timed_fluency,2021.2.3,Win32,60.04202942,NA,NA,NA,NA,NA,NA,NA,NA,NA,NA,NA,NA,NA,NA,NA,NA,NA,NA,NA,NA,NA
NA,NA,NA,NA,NA,4,1.183,1,0,11,11,0,1,4,685,2022-02-07_16h49.01.410,timed_fluency,2021.2.3,Win32,60.04202942,NA,NA,NA,NA,NA,NA,NA,NA,NA,NA,NA,NA,NA,NA,NA,NA,NA,NA,NA,NA,NA
NA,NA,NA,NA,NA,56,1.9499,1,0,12,12,26,1,56,685,2022-02-07_16h49.01.410,timed_fluency,2021.2.3,Win32,60.04202942,NA,NA,NA,NA,NA,NA,NA,NA,NA,NA,NA,NA,NA,NA,NA,NA,NA,NA,NA,NA,NA
NA,NA,NA,NA,NA,35,1.5494,1,0,13,13,18,1,35,685,2022-02-07_16h49.01.410,timed_fluency,2021.2.3,Win32,60.04202942,NA,NA,NA,NA,NA,NA,NA,NA,NA,NA,NA,NA,NA,NA,NA,NA,NA,NA,NA,NA,NA
NA,NA,NA,NA,NA,8,1.4331,1,0,14,14,2,1,8,685,2022-02-07_16h49.01.410,timed_fluency,2021.2.3,Win32,60.04202942,NA,NA,NA,NA,NA,NA,NA,NA,NA,NA,NA,NA,NA,NA,NA,NA,NA,NA,NA,NA,NA
NA,NA,NA,NA,NA,16,1.533,1,0,15,15,8,1,16,685,2022-02-07_16h49.01.410,timed_fluency,2021.2.3,Win32,60.04202942,NA,NA,NA,NA,NA,NA,NA,NA,NA,NA,NA,NA,NA,NA,NA,NA,NA,NA,NA,NA,NA
NA,NA,NA,NA,NA,63,3.3661,1,0,16,16,27,1,63,685,2022-02-07_16h49.01.410,timed_fluency,2021.2.3,Win32,60.04202942,NA,NA,NA,NA,NA,NA,NA,NA,NA,NA,NA,NA,NA,NA,NA,NA,NA,NA,NA,NA,NA
NA,NA,NA,NA,NA,15,1.5163,1,0,17,17,7,1,15,685,2022-02-07_16h49.01.410,timed_fluency,2021.2.3,Win32,60.04202942,NA,NA,NA,NA,NA,NA,NA,NA,NA,NA,NA,NA,NA,NA,NA,NA,NA,NA,NA,NA,NA
NA,NA,NA,NA,NA,12,1.1995,1,0,18,18,5,1,12,685,2022-02-07_16h49.01.410,timed_fluency,2021.2.3,Win32,60.04202942,NA,NA,NA,NA,NA,NA,NA,NA,NA,NA,NA,NA,NA,NA,NA,NA,NA,NA,NA,NA,NA
NA,NA,NA,NA,NA,28,2.0497,1,0,19,19,15,1,28,685,2022-02-07_16h49.01.410,timed_fluency,2021.2.3,Win32,60.04202942,NA,NA,NA,NA,NA,NA,NA,NA,NA,NA,NA,NA,NA,NA,NA,NA,NA,NA,NA,NA,NA
NA,NA,NA,NA,NA,48,2.0494,1,0,20,20,23,1,48,685,2022-02-07_16h49.01.410,timed_fluency,2021.2.3,Win32,60.04202942,NA,NA,NA,NA,NA,NA,NA,NA,NA,NA,NA,NA,NA,NA,NA,NA,NA,NA,NA,NA,NA
NA,NA,NA,NA,NA,14,1.5331,1,0,21,21,6,1,14,685,2022-02-07_16h49.01.410,timed_fluency,2021.2.3,Win32,60.04202942,NA,NA,NA,NA,NA,NA,NA,NA,NA,NA,NA,NA,NA,NA,NA,NA,NA,NA,NA,NA,NA
NA,NA,NA,NA,NA,49,1.783,1,0,22,22,24,1,49,685,2022-02-07_16h49.01.410,timed_fluency,2021.2.3,Win32,60.04202942,NA,NA,NA,NA,NA,NA,NA,NA,NA,NA,NA,NA,NA,NA,NA,NA,NA,NA,NA,NA,NA
NA,NA,NA,NA,NA,9,1.4833,1,0,23,23,3,1,9,685,2022-02-07_16h49.01.410,timed_fluency,2021.2.3,Win32,60.04202942,NA,NA,NA,NA,NA,NA,NA,NA,NA,NA,NA,NA,NA,NA,NA,NA,NA,NA,NA,NA,NA
NA,NA,NA,NA,NA,40,2.0823,1,0,24,24,20,1,40,685,2022-02-07_16h49.01.410,timed_fluency,2021.2.3,Win32,60.04202942,NA,NA,NA,NA,NA,NA,NA,NA,NA,NA,NA,NA,NA,NA,NA,NA,NA,NA,NA,NA,NA
NA,NA,NA,NA,NA,81,1.6327,1,0,25,25,30,1,81,685,2022-02-07_16h49.01.410,timed_fluency,2021.2.3,Win32,60.04202942,NA,NA,NA,NA,NA,NA,NA,NA,NA,NA,NA,NA,NA,NA,NA,NA,NA,NA,NA,NA,NA
NA,NA,NA,NA,NA,27,1.833,1,0,26,26,14,1,27,685,2022-02-07_16h49.01.410,timed_fluency,2021.2.3,Win32,60.04202942,NA,NA,NA,NA,NA,NA,NA,NA,NA,NA,NA,NA,NA,NA,NA,NA,NA,NA,NA,NA,NA
NA,NA,NA,NA,NA,30,1.5494,1,0,27,27,16,1,30,685,2022-02-07_16h49.01.410,timed_fluency,2021.2.3,Win32,60.04202942,NA,NA,NA,NA,NA,NA,NA,NA,NA,NA,NA,NA,NA,NA,NA,NA,NA,NA,NA,NA,NA
NA,NA,NA,NA,NA,54,1.6833,1,0,28,28,25,1,54,685,2022-02-07_16h49.01.410,timed_fluency,2021.2.3,Win32,60.04202942,NA,NA,NA,NA,NA,NA,NA,NA,NA,NA,NA,NA,NA,NA,NA,NA,NA,NA,NA,NA,NA
NA,NA,NA,NA,NA,24,1.7993,1,0,29,29,12,1,24,685,2022-02-07_16h49.01.410,timed_fluency,2021.2.3,Win32,60.04202942,NA,NA,NA,NA,NA,NA,NA,NA,NA,NA,NA,NA,NA,NA,NA,NA,NA,NA,NA,NA,NA
NA,NA,NA,NA,NA,18,1.5493,1,0,30,30,9,1,18,685,2022-02-07_16h49.01.410,timed_fluency,2021.2.3,Win32,60.04202942,NA,NA,NA,NA,NA,NA,NA,NA,NA,NA,NA,NA,NA,NA,NA,NA,NA,NA,NA,NA,NA
NA,NA,NA,NA,NA,NA,NA,NA,NA,NA,NA,NA,NA,NA,685,2022-02-07_16h49.01.410,timed_fluency,2021.2.3,Win32,60.04202942,0,1,1,1,1,typing.xlsx,2,NA,NA,NA,NA,NA,NA,NA,NA,NA,NA,NA,NA,NA,NA
NA,NA,NA,NA,NA,NA,NA,NA,NA,NA,NA,NA,NA,NA,685,2022-02-07_16h49.01.410,timed_fluency,2021.2.3,Win32,60.04202942,NA,NA,NA,NA,NA,NA,NA,space,11.4476,6,2.4721,1,0,0,0,0,1,2 × 3 =,6,NA,NA
NA,NA,NA,NA,NA,NA,NA,NA,NA,NA,NA,NA,NA,NA,685,2022-02-07_16h49.01.410,timed_fluency,2021.2.3,Win32,60.04202942,NA,NA,NA,NA,NA,NA,NA,NA,NA,40,3.4323,1,0,1,1,1,1,5 × 8 =,40,NA,NA
NA,NA,NA,NA,NA,NA,NA,NA,NA,NA,NA,NA,NA,NA,685,2022-02-07_16h49.01.410,timed_fluency,2021.2.3,Win32,60.04202942,NA,NA,NA,NA,NA,NA,NA,NA,NA,12,1.5659,1,0,2,2,2,1,3 × 4 =,12,NA,NA
NA,NA,NA,NA,NA,NA,NA,NA,NA,NA,NA,NA,NA,NA,685,2022-02-07_16h49.01.410,timed_fluency,2021.2.3,Win32,60.04202942,NA,NA,NA,NA,NA,NA,NA,NA,NA,15,1.6996,1,0,3,3,3,1,5 × 3 =,15,NA,NA
NA,NA,NA,NA,NA,NA,NA,NA,NA,NA,NA,NA,NA,NA,685,2022-02-07_16h49.01.410,timed_fluency,2021.2.3,Win32,60.04202942,NA,NA,NA,NA,NA,NA,NA,NA,NA,8,1.9999,1,0,4,4,4,1,2 × 4 =,8,NA,NA
NA,NA,NA,NA,NA,NA,NA,NA,NA,NA,NA,NA,NA,NA,685,2022-02-07_16h49.01.410,timed_fluency,2021.2.3,Win32,60.04202942,NA,NA,NA,NA,NA,NA,NA,NA,NA,4,1.2995,1,0,5,5,5,1,2 × 2 =,4,NA,NA
NA,NA,NA,NA,NA,NA,NA,NA,NA,NA,NA,NA,NA,NA,685,2022-02-07_16h49.01.410,timed_fluency,2021.2.3,Win32,60.04202942,NA,NA,NA,NA,NA,NA,NA,NA,NA,20,1.65,1,0,6,6,6,1,4 × 5 =,20,NA,NA
NA,NA,NA,NA,NA,NA,NA,NA,NA,NA,NA,NA,NA,NA,685,2022-02-07_16h49.01.410,timed_fluency,2021.2.3,Win32,60.04202942,NA,NA,NA,NA,NA,NA,NA,NA,NA,9,1.5668,1,0,7,7,7,1,3 × 3 =,9,NA,NA
NA,NA,NA,NA,NA,NA,NA,NA,NA,NA,NA,NA,NA,NA,685,2022-02-07_16h49.01.410,timed_fluency,2021.2.3,Win32,60.04202942,NA,NA,NA,NA,NA,NA,NA,NA,NA,10,1.7158,1,0,8,8,8,1,5 × 2 =,10,NA,NA
NA,NA,NA,NA,NA,NA,NA,NA,NA,NA,NA,NA,NA,NA,685,2022-02-07_16h49.01.410,timed_fluency,2021.2.3,Win32,60.04202942,NA,NA,NA,NA,NA,NA,NA,NA,NA,16,1.7828,1,0,9,9,9,1,4 × 4 =,16,NA,NA
NA,NA,NA,NA,NA,NA,NA,NA,NA,NA,NA,NA,NA,NA,685,2022-02-07_16h49.01.410,timed_fluency,2021.2.3,Win32,60.04202942,NA,NA,NA,NA,NA,NA,NA,NA,NA,24,1.7664,1,0,10,10,10,1,8 × 3 =,24,NA,NA
NA,NA,NA,NA,NA,NA,NA,NA,NA,NA,NA,NA,NA,NA,685,2022-02-07_16h49.01.410,timed_fluency,2021.2.3,Win32,60.04202942,NA,NA,NA,NA,NA,NA,NA,NA,NA,30,1.8829,1,0,11,11,11,1,6 × 5 =,30,NA,NA
NA,NA,NA,NA,NA,NA,NA,NA,NA,NA,NA,NA,NA,NA,685,2022-02-07_16h49.01.410,timed_fluency,2021.2.3,Win32,60.04202942,NA,NA,NA,NA,NA,NA,NA,NA,NA,14,2.1665,1,0,12,12,12,1,7 × 2 =,14,NA,NA
NA,NA,NA,NA,NA,NA,NA,NA,NA,NA,NA,NA,NA,NA,685,2022-02-07_16h49.01.410,timed_fluency,2021.2.3,Win32,60.04202942,NA,NA,NA,NA,NA,NA,NA,NA,NA,27,2.0492,1,0,13,13,13,1,3 × 9 =,27,NA,NA
NA,NA,NA,NA,NA,NA,NA,NA,NA,NA,NA,NA,NA,NA,685,2022-02-07_16h49.01.410,timed_fluency,2021.2.3,Win32,60.04202942,NA,NA,NA,NA,NA,NA,NA,NA,NA,16,2.1661,1,0,14,14,14,1,2 × 8 =,16,NA,NA
NA,NA,NA,NA,NA,NA,NA,NA,NA,NA,NA,NA,NA,NA,685,2022-02-07_16h49.01.410,timed_fluency,2021.2.3,Win32,60.04202942,NA,NA,NA,NA,NA,NA,NA,NA,NA,24,1.7664,1,0,15,15,15,1,4 × 6 =,24,NA,NA
NA,NA,NA,NA,NA,NA,NA,NA,NA,NA,NA,NA,NA,NA,685,2022-02-07_16h49.01.410,timed_fluency,2021.2.3,Win32,60.04202942,NA,NA,NA,NA,NA,NA,NA,NA,NA,21,1.4827,1,0,16,16,16,1,7 × 3 =,21,NA,NA
NA,NA,NA,NA,NA,NA,NA,NA,NA,NA,NA,NA,NA,NA,685,2022-02-07_16h49.01.410,timed_fluency,2021.2.3,Win32,60.04202942,NA,NA,NA,NA,NA,NA,NA,NA,NA,27,1.9662,1,0,17,17,17,1,9 × 3 =,27,NA,NA
NA,NA,NA,NA,NA,NA,NA,NA,NA,NA,NA,NA,NA,NA,685,2022-02-07_16h49.01.410,timed_fluency,2021.2.3,Win32,60.04202942,NA,NA,NA,NA,NA,NA,NA,NA,NA,28,2.2165,1,0,18,18,18,1,4 × 7 =,28,NA,NA
NA,NA,NA,NA,NA,NA,NA,NA,NA,NA,NA,NA,NA,NA,685,2022-02-07_16h49.01.410,timed_fluency,2021.2.3,Win32,60.04202942,NA,NA,NA,NA,NA,NA,NA,NA,NA,18,2.1164,1,0,19,19,19,1,2 × 9 =,18,NA,NA
NA,NA,NA,NA,NA,NA,NA,NA,NA,NA,NA,NA,NA,NA,685,2022-02-07_16h49.01.410,timed_fluency,2021.2.3,Win32,60.04202942,NA,NA,NA,NA,NA,NA,NA,NA,NA,72,4.2327,1,0,20,20,20,1,9 × 8 =,72,NA,NA
NA,NA,NA,NA,NA,NA,NA,NA,NA,NA,NA,NA,NA,NA,685,2022-02-07_16h49.01.410,timed_fluency,2021.2.3,Win32,60.04202942,NA,NA,NA,NA,NA,NA,NA,NA,NA,42,2.7112,1,0,21,21,21,1,7 × 6 =,42,NA,NA
NA,NA,NA,NA,NA,NA,NA,NA,NA,NA,NA,NA,NA,NA,685,2022-02-07_16h49.01.410,timed_fluency,2021.2.3,Win32,60.04202942,NA,NA,NA,NA,NA,NA,NA,NA,NA,54,2.2993,1,0,22,22,22,1,6 × 9 =,54,NA,NA
NA,NA,NA,NA,NA,NA,NA,NA,NA,NA,NA,NA,NA,NA,685,2022-02-07_16h49.01.410,timed_fluency,2021.2.3,Win32,60.04202942,NA,NA,NA,NA,NA,NA,NA,NA,NA,45,2.3832,1,0,23,23,23,1,9 × 5 =,45,NA,NA
NA,NA,NA,NA,NA,NA,NA,NA,NA,NA,NA,NA,NA,NA,685,2022-02-07_16h49.01.410,timed_fluency,2021.2.3,Win32,60.04202942,NA,NA,NA,NA,NA,NA,NA,NA,NA,56,2.1279,1,0,24,24,24,1,8 × 7 =,56,NA,NA
NA,NA,NA,NA,NA,NA,NA,NA,NA,NA,NA,NA,NA,NA,685,2022-02-07_16h49.01.410,timed_fluency,2021.2.3,Win32,60.04202942,NA,NA,NA,NA,NA,NA,NA,NA,NA,36,2.5016,1,0,25,25,25,1,6 × 6 =,36,NA,NA
NA,NA,NA,NA,NA,NA,NA,NA,NA,NA,NA,NA,NA,NA,685,2022-02-07_16h49.01.410,timed_fluency,2021.2.3,Win32,60.04202942,NA,NA,NA,NA,NA,NA,NA,NA,NA,35,2.0478,1,0,26,26,26,1,5 × 7 =,35,NA,NA
NA,NA,NA,NA,NA,NA,NA,NA,NA,NA,NA,NA,NA,NA,685,2022-02-07_16h49.01.410,timed_fluency,2021.2.3,Win32,60.04202942,NA,NA,NA,NA,NA,NA,NA,NA,NA,36,3.1667,1,0,27,27,27,1,4 × 9 =,36,NA,NA
NA,NA,NA,NA,NA,NA,NA,NA,NA,NA,NA,NA,NA,NA,685,2022-02-07_16h49.01.410,timed_fluency,2021.2.3,Win32,60.04202942,NA,NA,NA,NA,NA,NA,NA,NA,NA,49,2.2609,0,0,28,28,28,1,8 × 6 =,48,NA,NA
NA,NA,NA,NA,NA,NA,NA,NA,NA,NA,NA,NA,NA,NA,685,2022-02-07_16h49.01.410,timed_fluency,2021.2.3,Win32,60.04202942,NA,NA,NA,NA,NA,NA,NA,NA,NA,42,3.216,0,0,29,29,29,1,9 × 7 =,63,NA,NA
NA,NA,NA,NA,NA,NA,NA,NA,NA,NA,NA,NA,NA,NA,685,2022-02-07_16h49.01.410,timed_fluency,2021.2.3,Win32,60.04202942,NA,NA,NA,NA,NA,NA,NA,NA,NA,12,3.0499,1,0,30,30,30,1,4 × 3 =,12,NA,NA
NA,NA,NA,NA,NA,NA,NA,NA,NA,NA,NA,NA,NA,NA,685,2022-02-07_16h49.01.410,timed_fluency,2021.2.3,Win32,60.04202942,NA,NA,NA,NA,NA,NA,NA,NA,NA,25,1.6943,1,0,31,31,31,1,5 × 5 =,25,NA,NA
NA,NA,NA,NA,NA,NA,NA,NA,NA,NA,NA,NA,NA,NA,685,2022-02-07_16h49.01.410,timed_fluency,2021.2.3,Win32,60.04202942,NA,NA,NA,NA,NA,NA,NA,NA,NA,6,1.6832,1,0,32,32,32,1,3 × 2 =,6,NA,NA
NA,NA,NA,NA,NA,NA,NA,NA,NA,NA,NA,NA,NA,NA,685,2022-02-07_16h49.01.410,timed_fluency,2021.2.3,Win32,60.04202942,NA,NA,NA,NA,NA,NA,NA,NA,NA,20,1.749,1,0,33,33,33,1,5 × 4 =,20,NA,NA
NA,NA,NA,NA,NA,NA,NA,NA,NA,NA,NA,NA,NA,NA,685,2022-02-07_16h49.01.410,timed_fluency,2021.2.3,Win32,60.04202942,NA,NA,NA,NA,NA,NA,NA,NA,NA,8,1.8663,1,0,34,34,34,1,4 × 2 =,8,NA,NA
NA,NA,NA,NA,NA,NA,NA,NA,NA,NA,NA,NA,NA,NA,685,2022-02-07_16h49.01.410,timed_fluency,2021.2.3,Win32,60.04202942,NA,NA,NA,NA,NA,NA,NA,NA,NA,12,1.4993,1,0,35,35,35,1,2 × 6 =,12,NA,NA
NA,NA,NA,NA,NA,NA,NA,NA,NA,NA,NA,NA,NA,NA,685,2022-02-07_16h49.01.410,timed_fluency,2021.2.3,Win32,60.04202942,NA,NA,NA,NA,NA,NA,NA,NA,NA,15,1.6497,1,0,36,36,36,1,3 × 5 =,15,NA,NA
NA,NA,NA,NA,NA,NA,NA,NA,NA,NA,NA,NA,NA,NA,685,2022-02-07_16h49.01.410,timed_fluency,2021.2.3,Win32,60.04202942,NA,NA,NA,NA,NA,NA,NA,NA,NA,18,2.1663,1,0,37,37,37,1,6 × 3 =,18,NA,NA
NA,NA,NA,NA,NA,NA,NA,NA,NA,NA,NA,NA,NA,NA,685,2022-02-07_16h49.01.410,timed_fluency,2021.2.3,Win32,60.04202942,NA,NA,NA,NA,NA,NA,NA,NA,NA,10,1.8995,1,0,38,38,38,1,2 × 5 =,10,NA,NA
NA,NA,NA,NA,NA,NA,NA,NA,NA,NA,NA,NA,NA,NA,685,2022-02-07_16h49.01.410,timed_fluency,2021.2.3,Win32,60.04202942,NA,NA,NA,NA,NA,NA,NA,NA,NA,32,3.4323,1,0,39,39,39,1,4 × 8 =,32,NA,NA
NA,NA,NA,NA,NA,NA,NA,NA,NA,NA,NA,NA,NA,NA,685,2022-02-07_16h49.01.410,timed_fluency,2021.2.3,Win32,60.04202942,NA,NA,NA,NA,NA,NA,NA,NA,NA,24,1.9617,1,0,40,40,40,1,3 × 8 =,24,NA,NA
NA,NA,NA,NA,NA,NA,NA,NA,NA,NA,NA,NA,NA,NA,685,2022-02-07_16h49.01.410,timed_fluency,2021.2.3,Win32,60.04202942,NA,NA,NA,NA,NA,NA,NA,NA,NA,NA,NA,1,0,41,41,41,1,5 × 6 =,30,NA,NA
NA,NA,NA,NA,NA,NA,NA,NA,NA,NA,NA,NA,NA,NA,685,2022-02-07_16h49.01.410,timed_fluency,2021.2.3,Win32,60.04202942,NA,NA,NA,NA,NA,NA,NA,NA,NA,NA,NA,NA,NA,NA,NA,NA,NA,NA,NA,space,4.3164
"[1368,741]",space,9.77,space,11.518,36,2.023,1,0,0,0,19,1,36,686,2022-02-01_10h10.50,timed_fluency,2021.2.3,MacIntel,62.5,NA,NA,NA,NA,NA,NA,NA,NA,NA,NA,NA,NA,NA,NA,NA,NA,NA,NA,NA,NA,NA
NA,NA,NA,NA,NA,28,1.432,1,0,1,1,15,1,28,686,2022-02-01_10h10.50,timed_fluency,2021.2.3,MacIntel,62.5,NA,NA,NA,NA,NA,NA,NA,NA,NA,NA,NA,NA,NA,NA,NA,NA,NA,NA,NA,NA,NA
NA,NA,NA,NA,NA,27,1.366,1,0,2,2,14,1,27,686,2022-02-01_10h10.50,timed_fluency,2021.2.3,MacIntel,62.5,NA,NA,NA,NA,NA,NA,NA,NA,NA,NA,NA,NA,NA,NA,NA,NA,NA,NA,NA,NA,NA
NA,NA,NA,NA,NA,49,1.416,1,0,3,3,24,1,49,686,2022-02-01_10h10.50,timed_fluency,2021.2.3,MacIntel,62.5,NA,NA,NA,NA,NA,NA,NA,NA,NA,NA,NA,NA,NA,NA,NA,NA,NA,NA,NA,NA,NA
NA,NA,NA,NA,NA,56,1.216,1,0,4,4,26,1,56,686,2022-02-01_10h10.50,timed_fluency,2021.2.3,MacIntel,62.5,NA,NA,NA,NA,NA,NA,NA,NA,NA,NA,NA,NA,NA,NA,NA,NA,NA,NA,NA,NA,NA
NA,NA,NA,NA,NA,20,1.266,1,0,5,5,10,1,20,686,2022-02-01_10h10.50,timed_fluency,2021.2.3,MacIntel,62.5,NA,NA,NA,NA,NA,NA,NA,NA,NA,NA,NA,NA,NA,NA,NA,NA,NA,NA,NA,NA,NA
NA,NA,NA,NA,NA,48,1.4,1,0,6,6,23,1,48,686,2022-02-01_10h10.50,timed_fluency,2021.2.3,MacIntel,62.5,NA,NA,NA,NA,NA,NA,NA,NA,NA,NA,NA,NA,NA,NA,NA,NA,NA,NA,NA,NA,NA
NA,NA,NA,NA,NA,54,1.516,1,0,7,7,25,1,54,686,2022-02-01_10h10.50,timed_fluency,2021.2.3,MacIntel,62.5,NA,NA,NA,NA,NA,NA,NA,NA,NA,NA,NA,NA,NA,NA,NA,NA,NA,NA,NA,NA,NA
NA,NA,NA,NA,NA,14,1.3,1,0,8,8,6,1,14,686,2022-02-01_10h10.50,timed_fluency,2021.2.3,MacIntel,62.5,NA,NA,NA,NA,NA,NA,NA,NA,NA,NA,NA,NA,NA,NA,NA,NA,NA,NA,NA,NA,NA
NA,NA,NA,NA,NA,6,1.217,1,0,9,9,1,1,6,686,2022-02-01_10h10.50,timed_fluency,2021.2.3,MacIntel,62.5,NA,NA,NA,NA,NA,NA,NA,NA,NA,NA,NA,NA,NA,NA,NA,NA,NA,NA,NA,NA,NA
NA,NA,NA,NA,NA,12,0.966,1,0,10,10,5,1,12,686,2022-02-01_10h10.50,timed_fluency,2021.2.3,MacIntel,62.5,NA,NA,NA,NA,NA,NA,NA,NA,NA,NA,NA,NA,NA,NA,NA,NA,NA,NA,NA,NA,NA
NA,NA,NA,NA,NA,10,1.25,1,0,11,11,4,1,10,686,2022-02-01_10h10.50,timed_fluency,2021.2.3,MacIntel,62.5,NA,NA,NA,NA,NA,NA,NA,NA,NA,NA,NA,NA,NA,NA,NA,NA,NA,NA,NA,NA,NA
NA,NA,NA,NA,NA,42,1.299,1,0,12,12,21,1,42,686,2022-02-01_10h10.50,timed_fluency,2021.2.3,MacIntel,62.5,NA,NA,NA,NA,NA,NA,NA,NA,NA,NA,NA,NA,NA,NA,NA,NA,NA,NA,NA,NA,NA
NA,NA,NA,NA,NA,25,1.217,1,0,13,13,13,1,25,686,2022-02-01_10h10.50,timed_fluency,2021.2.3,MacIntel,62.5,NA,NA,NA,NA,NA,NA,NA,NA,NA,NA,NA,NA,NA,NA,NA,NA,NA,NA,NA,NA,NA
NA,NA,NA,NA,NA,35,1.166,1,0,14,14,18,1,35,686,2022-02-01_10h10.50,timed_fluency,2021.2.3,MacIntel,62.5,NA,NA,NA,NA,NA,NA,NA,NA,NA,NA,NA,NA,NA,NA,NA,NA,NA,NA,NA,NA,NA
NA,NA,NA,NA,NA,9,1.283,1,0,15,15,3,1,9,686,2022-02-01_10h10.50,timed_fluency,2021.2.3,MacIntel,62.5,NA,NA,NA,NA,NA,NA,NA,NA,NA,NA,NA,NA,NA,NA,NA,NA,NA,NA,NA,NA,NA
NA,NA,NA,NA,NA,24,1.133,1,0,16,16,12,1,24,686,2022-02-01_10h10.50,timed_fluency,2021.2.3,MacIntel,62.5,NA,NA,NA,NA,NA,NA,NA,NA,NA,NA,NA,NA,NA,NA,NA,NA,NA,NA,NA,NA,NA
NA,NA,NA,NA,NA,63,1.649,1,0,17,17,27,1,63,686,2022-02-01_10h10.50,timed_fluency,2021.2.3,MacIntel,62.5,NA,NA,NA,NA,NA,NA,NA,NA,NA,NA,NA,NA,NA,NA,NA,NA,NA,NA,NA,NA,NA
NA,NA,NA,NA,NA,21,1.507,1,0,18,18,11,1,21,686,2022-02-01_10h10.50,timed_fluency,2021.2.3,MacIntel,62.5,NA,NA,NA,NA,NA,NA,NA,NA,NA,NA,NA,NA,NA,NA,NA,NA,NA,NA,NA,NA,NA
NA,NA,NA,NA,NA,16,1.309,1,0,19,19,8,1,16,686,2022-02-01_10h10.50,timed_fluency,2021.2.3,MacIntel,62.5,NA,NA,NA,NA,NA,NA,NA,NA,NA,NA,NA,NA,NA,NA,NA,NA,NA,NA,NA,NA,NA
NA,NA,NA,NA,NA,64,1.366,1,0,20,20,28,1,64,686,2022-02-01_10h10.50,timed_fluency,2021.2.3,MacIntel,62.5,NA,NA,NA,NA,NA,NA,NA,NA,NA,NA,NA,NA,NA,NA,NA,NA,NA,NA,NA,NA,NA
NA,NA,NA,NA,NA,40,1.284,1,0,21,21,20,1,40,686,2022-02-01_10h10.50,timed_fluency,2021.2.3,MacIntel,62.5,NA,NA,NA,NA,NA,NA,NA,NA,NA,NA,NA,NA,NA,NA,NA,NA,NA,NA,NA,NA,NA
NA,NA,NA,NA,NA,32,2.032,1,0,22,22,17,1,32,686,2022-02-01_10h10.50,timed_fluency,2021.2.3,MacIntel,62.5,NA,NA,NA,NA,NA,NA,NA,NA,NA,NA,NA,NA,NA,NA,NA,NA,NA,NA,NA,NA,NA
NA,NA,NA,NA,NA,45,1.233,1,0,23,23,22,1,45,686,2022-02-01_10h10.50,timed_fluency,2021.2.3,MacIntel,62.5,NA,NA,NA,NA,NA,NA,NA,NA,NA,NA,NA,NA,NA,NA,NA,NA,NA,NA,NA,NA,NA
NA,NA,NA,NA,NA,15,1.15,1,0,24,24,7,1,15,686,2022-02-01_10h10.50,timed_fluency,2021.2.3,MacIntel,62.5,NA,NA,NA,NA,NA,NA,NA,NA,NA,NA,NA,NA,NA,NA,NA,NA,NA,NA,NA,NA,NA
NA,NA,NA,NA,NA,30,1.366,1,0,25,25,16,1,30,686,2022-02-01_10h10.50,timed_fluency,2021.2.3,MacIntel,62.5,NA,NA,NA,NA,NA,NA,NA,NA,NA,NA,NA,NA,NA,NA,NA,NA,NA,NA,NA,NA,NA
NA,NA,NA,NA,NA,18,1.255,1,0,26,26,9,1,18,686,2022-02-01_10h10.50,timed_fluency,2021.2.3,MacIntel,62.5,NA,NA,NA,NA,NA,NA,NA,NA,NA,NA,NA,NA,NA,NA,NA,NA,NA,NA,NA,NA,NA
NA,NA,NA,NA,NA,8,0.995,1,0,27,27,2,1,8,686,2022-02-01_10h10.50,timed_fluency,2021.2.3,MacIntel,62.5,NA,NA,NA,NA,NA,NA,NA,NA,NA,NA,NA,NA,NA,NA,NA,NA,NA,NA,NA,NA,NA
NA,NA,NA,NA,NA,4,1.149,1,0,28,28,0,1,4,686,2022-02-01_10h10.50,timed_fluency,2021.2.3,MacIntel,62.5,NA,NA,NA,NA,NA,NA,NA,NA,NA,NA,NA,NA,NA,NA,NA,NA,NA,NA,NA,NA,NA
NA,NA,NA,NA,NA,81,1.35,1,0,29,29,30,1,81,686,2022-02-01_10h10.50,timed_fluency,2021.2.3,MacIntel,62.5,NA,NA,NA,NA,NA,NA,NA,NA,NA,NA,NA,NA,NA,NA,NA,NA,NA,NA,NA,NA,NA
NA,NA,NA,NA,NA,72,1.2,1,0,30,30,29,1,72,686,2022-02-01_10h10.50,timed_fluency,2021.2.3,MacIntel,62.5,NA,NA,NA,NA,NA,NA,NA,NA,NA,NA,NA,NA,NA,NA,NA,NA,NA,NA,NA,NA,NA
NA,NA,NA,NA,NA,NA,NA,NA,NA,NA,NA,NA,NA,NA,686,2022-02-01_10h10.50,timed_fluency,2021.2.3,MacIntel,62.5,0,0,0,0,1,typing.xlsx,1,NA,NA,NA,NA,NA,NA,NA,NA,NA,NA,NA,NA,NA,NA
NA,NA,NA,NA,NA,12,1.041,1,0,0,0,5,1,12,686,2022-02-01_10h10.50,timed_fluency,2021.2.3,MacIntel,62.5,NA,NA,NA,NA,NA,NA,NA,NA,NA,NA,NA,NA,NA,NA,NA,NA,NA,NA,NA,NA,NA
NA,NA,NA,NA,NA,42,2.148,1,0,1,1,21,1,42,686,2022-02-01_10h10.50,timed_fluency,2021.2.3,MacIntel,62.5,NA,NA,NA,NA,NA,NA,NA,NA,NA,NA,NA,NA,NA,NA,NA,NA,NA,NA,NA,NA,NA
NA,NA,NA,NA,NA,27,1.216,1,0,2,2,14,1,27,686,2022-02-01_10h10.50,timed_fluency,2021.2.3,MacIntel,62.5,NA,NA,NA,NA,NA,NA,NA,NA,NA,NA,NA,NA,NA,NA,NA,NA,NA,NA,NA,NA,NA
NA,NA,NA,NA,NA,18,1.2,1,0,3,3,9,1,18,686,2022-02-01_10h10.50,timed_fluency,2021.2.3,MacIntel,62.5,NA,NA,NA,NA,NA,NA,NA,NA,NA,NA,NA,NA,NA,NA,NA,NA,NA,NA,NA,NA,NA
NA,NA,NA,NA,NA,25,1.316,1,0,4,4,13,1,25,686,2022-02-01_10h10.50,timed_fluency,2021.2.3,MacIntel,62.5,NA,NA,NA,NA,NA,NA,NA,NA,NA,NA,NA,NA,NA,NA,NA,NA,NA,NA,NA,NA,NA
NA,NA,NA,NA,NA,49,1.432,1,0,5,5,24,1,49,686,2022-02-01_10h10.50,timed_fluency,2021.2.3,MacIntel,62.5,NA,NA,NA,NA,NA,NA,NA,NA,NA,NA,NA,NA,NA,NA,NA,NA,NA,NA,NA,NA,NA
NA,NA,NA,NA,NA,15,1.149,1,0,6,6,7,1,15,686,2022-02-01_10h10.50,timed_fluency,2021.2.3,MacIntel,62.5,NA,NA,NA,NA,NA,NA,NA,NA,NA,NA,NA,NA,NA,NA,NA,NA,NA,NA,NA,NA,NA
NA,NA,NA,NA,NA,56,1.115,1,0,7,7,26,1,56,686,2022-02-01_10h10.50,timed_fluency,2021.2.3,MacIntel,62.5,NA,NA,NA,NA,NA,NA,NA,NA,NA,NA,NA,NA,NA,NA,NA,NA,NA,NA,NA,NA,NA
NA,NA,NA,NA,NA,14,1.467,1,0,8,8,6,1,14,686,2022-02-01_10h10.50,timed_fluency,2021.2.3,MacIntel,62.5,NA,NA,NA,NA,NA,NA,NA,NA,NA,NA,NA,NA,NA,NA,NA,NA,NA,NA,NA,NA,NA
NA,NA,NA,NA,NA,64,1.3,1,0,9,9,28,1,64,686,2022-02-01_10h10.50,timed_fluency,2021.2.3,MacIntel,62.5,NA,NA,NA,NA,NA,NA,NA,NA,NA,NA,NA,NA,NA,NA,NA,NA,NA,NA,NA,NA,NA
NA,NA,NA,NA,NA,54,1.249,1,0,10,10,25,1,54,686,2022-02-01_10h10.50,timed_fluency,2021.2.3,MacIntel,62.5,NA,NA,NA,NA,NA,NA,NA,NA,NA,NA,NA,NA,NA,NA,NA,NA,NA,NA,NA,NA,NA
NA,NA,NA,NA,NA,24,1.118,1,0,11,11,12,1,24,686,2022-02-01_10h10.50,timed_fluency,2021.2.3,MacIntel,62.5,NA,NA,NA,NA,NA,NA,NA,NA,NA,NA,NA,NA,NA,NA,NA,NA,NA,NA,NA,NA,NA
NA,NA,NA,NA,NA,8,1.299,1,0,12,12,2,1,8,686,2022-02-01_10h10.50,timed_fluency,2021.2.3,MacIntel,62.5,NA,NA,NA,NA,NA,NA,NA,NA,NA,NA,NA,NA,NA,NA,NA,NA,NA,NA,NA,NA,NA
NA,NA,NA,NA,NA,10,1.099,1,0,13,13,4,1,10,686,2022-02-01_10h10.50,timed_fluency,2021.2.3,MacIntel,62.5,NA,NA,NA,NA,NA,NA,NA,NA,NA,NA,NA,NA,NA,NA,NA,NA,NA,NA,NA,NA,NA
NA,NA,NA,NA,NA,9,0.884,1,0,14,14,3,1,9,686,2022-02-01_10h10.50,timed_fluency,2021.2.3,MacIntel,62.5,NA,NA,NA,NA,NA,NA,NA,NA,NA,NA,NA,NA,NA,NA,NA,NA,NA,NA,NA,NA,NA
NA,NA,NA,NA,NA,35,1.166,1,0,15,15,18,1,35,686,2022-02-01_10h10.50,timed_fluency,2021.2.3,MacIntel,62.5,NA,NA,NA,NA,NA,NA,NA,NA,NA,NA,NA,NA,NA,NA,NA,NA,NA,NA,NA,NA,NA
NA,NA,NA,NA,NA,40,1.383,1,0,16,16,20,1,40,686,2022-02-01_10h10.50,timed_fluency,2021.2.3,MacIntel,62.5,NA,NA,NA,NA,NA,NA,NA,NA,NA,NA,NA,NA,NA,NA,NA,NA,NA,NA,NA,NA,NA
NA,NA,NA,NA,NA,21,1.116,1,0,17,17,11,1,21,686,2022-02-01_10h10.50,timed_fluency,2021.2.3,MacIntel,62.5,NA,NA,NA,NA,NA,NA,NA,NA,NA,NA,NA,NA,NA,NA,NA,NA,NA,NA,NA,NA,NA
NA,NA,NA,NA,NA,32,1.266,1,0,18,18,17,1,32,686,2022-02-01_10h10.50,timed_fluency,2021.2.3,MacIntel,62.5,NA,NA,NA,NA,NA,NA,NA,NA,NA,NA,NA,NA,NA,NA,NA,NA,NA,NA,NA,NA,NA
NA,NA,NA,NA,NA,4,1.016,1,0,19,19,0,1,4,686,2022-02-01_10h10.50,timed_fluency,2021.2.3,MacIntel,62.5,NA,NA,NA,NA,NA,NA,NA,NA,NA,NA,NA,NA,NA,NA,NA,NA,NA,NA,NA,NA,NA
NA,NA,NA,NA,NA,6,1.15,1,0,20,20,1,1,6,686,2022-02-01_10h10.50,timed_fluency,2021.2.3,MacIntel,62.5,NA,NA,NA,NA,NA,NA,NA,NA,NA,NA,NA,NA,NA,NA,NA,NA,NA,NA,NA,NA,NA
NA,NA,NA,NA,NA,20,1.1,1,0,21,21,10,1,20,686,2022-02-01_10h10.50,timed_fluency,2021.2.3,MacIntel,62.5,NA,NA,NA,NA,NA,NA,NA,NA,NA,NA,NA,NA,NA,NA,NA,NA,NA,NA,NA,NA,NA
NA,NA,NA,NA,NA,45,1.216,1,0,22,22,22,1,45,686,2022-02-01_10h10.50,timed_fluency,2021.2.3,MacIntel,62.5,NA,NA,NA,NA,NA,NA,NA,NA,NA,NA,NA,NA,NA,NA,NA,NA,NA,NA,NA,NA,NA
NA,NA,NA,NA,NA,30,1.017,1,0,23,23,16,1,30,686,2022-02-01_10h10.50,timed_fluency,2021.2.3,MacIntel,62.5,NA,NA,NA,NA,NA,NA,NA,NA,NA,NA,NA,NA,NA,NA,NA,NA,NA,NA,NA,NA,NA
NA,NA,NA,NA,NA,16,1.382,1,0,24,24,8,1,16,686,2022-02-01_10h10.50,timed_fluency,2021.2.3,MacIntel,62.5,NA,NA,NA,NA,NA,NA,NA,NA,NA,NA,NA,NA,NA,NA,NA,NA,NA,NA,NA,NA,NA
NA,NA,NA,NA,NA,81,1.201,1,0,25,25,30,1,81,686,2022-02-01_10h10.50,timed_fluency,2021.2.3,MacIntel,62.5,NA,NA,NA,NA,NA,NA,NA,NA,NA,NA,NA,NA,NA,NA,NA,NA,NA,NA,NA,NA,NA
NA,NA,NA,NA,NA,36,1.483,1,0,26,26,19,1,36,686,2022-02-01_10h10.50,timed_fluency,2021.2.3,MacIntel,62.5,NA,NA,NA,NA,NA,NA,NA,NA,NA,NA,NA,NA,NA,NA,NA,NA,NA,NA,NA,NA,NA
NA,NA,NA,NA,NA,72,1.483,1,0,27,27,29,1,72,686,2022-02-01_10h10.50,timed_fluency,2021.2.3,MacIntel,62.5,NA,NA,NA,NA,NA,NA,NA,NA,NA,NA,NA,NA,NA,NA,NA,NA,NA,NA,NA,NA,NA
NA,NA,NA,NA,NA,48,1.399,1,0,28,28,23,1,48,686,2022-02-01_10h10.50,timed_fluency,2021.2.3,MacIntel,62.5,NA,NA,NA,NA,NA,NA,NA,NA,NA,NA,NA,NA,NA,NA,NA,NA,NA,NA,NA,NA,NA
NA,NA,NA,NA,NA,28,1.133,1,0,29,29,15,1,28,686,2022-02-01_10h10.50,timed_fluency,2021.2.3,MacIntel,62.5,NA,NA,NA,NA,NA,NA,NA,NA,NA,NA,NA,NA,NA,NA,NA,NA,NA,NA,NA,NA,NA
NA,NA,NA,NA,NA,63,1.467,1,0,30,30,27,1,63,686,2022-02-01_10h10.50,timed_fluency,2021.2.3,MacIntel,62.5,NA,NA,NA,NA,NA,NA,NA,NA,NA,NA,NA,NA,NA,NA,NA,NA,NA,NA,NA,NA,NA
NA,NA,NA,NA,NA,NA,NA,NA,NA,NA,NA,NA,NA,NA,686,2022-02-01_10h10.50,timed_fluency,2021.2.3,MacIntel,62.5,0,1,1,1,1,typing.xlsx,2,NA,NA,NA,NA,NA,NA,NA,NA,NA,NA,NA,NA,NA,NA
NA,NA,NA,NA,NA,NA,NA,NA,NA,NA,NA,NA,NA,NA,686,2022-02-01_10h10.50,timed_fluency,2021.2.3,MacIntel,62.5,NA,NA,NA,NA,NA,NA,NA,space,10.262,6,1.556,1,0,0,0,0,1,2 × 3 =,6,NA,NA
NA,NA,NA,NA,NA,NA,NA,NA,NA,NA,NA,NA,NA,NA,686,2022-02-01_10h10.50,timed_fluency,2021.2.3,MacIntel,62.5,NA,NA,NA,NA,NA,NA,NA,NA,NA,40,1.982,1,0,1,1,1,1,5 × 8 =,40,NA,NA
NA,NA,NA,NA,NA,NA,NA,NA,NA,NA,NA,NA,NA,NA,686,2022-02-01_10h10.50,timed_fluency,2021.2.3,MacIntel,62.5,NA,NA,NA,NA,NA,NA,NA,NA,NA,12,1.333,1,0,2,2,2,1,3 × 4 =,12,NA,NA
NA,NA,NA,NA,NA,NA,NA,NA,NA,NA,NA,NA,NA,NA,686,2022-02-01_10h10.50,timed_fluency,2021.2.3,MacIntel,62.5,NA,NA,NA,NA,NA,NA,NA,NA,NA,15,1.45,1,0,3,3,3,1,5 × 3 =,15,NA,NA
NA,NA,NA,NA,NA,NA,NA,NA,NA,NA,NA,NA,NA,NA,686,2022-02-01_10h10.50,timed_fluency,2021.2.3,MacIntel,62.5,NA,NA,NA,NA,NA,NA,NA,NA,NA,8,1.466,1,0,4,4,4,1,2 × 4 =,8,NA,NA
NA,NA,NA,NA,NA,NA,NA,NA,NA,NA,NA,NA,NA,NA,686,2022-02-01_10h10.50,timed_fluency,2021.2.3,MacIntel,62.5,NA,NA,NA,NA,NA,NA,NA,NA,NA,4,1.298,1,0,5,5,5,1,2 × 2 =,4,NA,NA
NA,NA,NA,NA,NA,NA,NA,NA,NA,NA,NA,NA,NA,NA,686,2022-02-01_10h10.50,timed_fluency,2021.2.3,MacIntel,62.5,NA,NA,NA,NA,NA,NA,NA,NA,NA,20,1.384,1,0,6,6,6,1,4 × 5 =,20,NA,NA
NA,NA,NA,NA,NA,NA,NA,NA,NA,NA,NA,NA,NA,NA,686,2022-02-01_10h10.50,timed_fluency,2021.2.3,MacIntel,62.5,NA,NA,NA,NA,NA,NA,NA,NA,NA,9,1.337,1,0,7,7,7,1,3 × 3 =,9,NA,NA
NA,NA,NA,NA,NA,NA,NA,NA,NA,NA,NA,NA,NA,NA,686,2022-02-01_10h10.50,timed_fluency,2021.2.3,MacIntel,62.5,NA,NA,NA,NA,NA,NA,NA,NA,NA,10,1.365,1,0,8,8,8,1,5 × 2 =,10,NA,NA
NA,NA,NA,NA,NA,NA,NA,NA,NA,NA,NA,NA,NA,NA,686,2022-02-01_10h10.50,timed_fluency,2021.2.3,MacIntel,62.5,NA,NA,NA,NA,NA,NA,NA,NA,NA,16,1.881,1,0,9,9,9,1,4 × 4 =,16,NA,NA
NA,NA,NA,NA,NA,NA,NA,NA,NA,NA,NA,NA,NA,NA,686,2022-02-01_10h10.50,timed_fluency,2021.2.3,MacIntel,62.5,NA,NA,NA,NA,NA,NA,NA,NA,NA,24,1.65,1,0,10,10,10,1,8 × 3 =,24,NA,NA
NA,NA,NA,NA,NA,NA,NA,NA,NA,NA,NA,NA,NA,NA,686,2022-02-01_10h10.50,timed_fluency,2021.2.3,MacIntel,62.5,NA,NA,NA,NA,NA,NA,NA,NA,NA,30,1.466,1,0,11,11,11,1,6 × 5 =,30,NA,NA
NA,NA,NA,NA,NA,NA,NA,NA,NA,NA,NA,NA,NA,NA,686,2022-02-01_10h10.50,timed_fluency,2021.2.3,MacIntel,62.5,NA,NA,NA,NA,NA,NA,NA,NA,NA,14,1.534,1,0,12,12,12,1,7 × 2 =,14,NA,NA
NA,NA,NA,NA,NA,NA,NA,NA,NA,NA,NA,NA,NA,NA,686,2022-02-01_10h10.50,timed_fluency,2021.2.3,MacIntel,62.5,NA,NA,NA,NA,NA,NA,NA,NA,NA,27,1.716,1,0,13,13,13,1,3 × 9 =,27,NA,NA
NA,NA,NA,NA,NA,NA,NA,NA,NA,NA,NA,NA,NA,NA,686,2022-02-01_10h10.50,timed_fluency,2021.2.3,MacIntel,62.5,NA,NA,NA,NA,NA,NA,NA,NA,NA,16,1.883,1,0,14,14,14,1,2 × 8 =,16,NA,NA
NA,NA,NA,NA,NA,NA,NA,NA,NA,NA,NA,NA,NA,NA,686,2022-02-01_10h10.50,timed_fluency,2021.2.3,MacIntel,62.5,NA,NA,NA,NA,NA,NA,NA,NA,NA,24,1.782,1,0,15,15,15,1,4 × 6 =,24,NA,NA
NA,NA,NA,NA,NA,NA,NA,NA,NA,NA,NA,NA,NA,NA,686,2022-02-01_10h10.50,timed_fluency,2021.2.3,MacIntel,62.5,NA,NA,NA,NA,NA,NA,NA,NA,NA,21,1.367,1,0,16,16,16,1,7 × 3 =,21,NA,NA
NA,NA,NA,NA,NA,NA,NA,NA,NA,NA,NA,NA,NA,NA,686,2022-02-01_10h10.50,timed_fluency,2021.2.3,MacIntel,62.5,NA,NA,NA,NA,NA,NA,NA,NA,NA,27,1.815,1,0,17,17,17,1,9 × 3 =,27,NA,NA
NA,NA,NA,NA,NA,NA,NA,NA,NA,NA,NA,NA,NA,NA,686,2022-02-01_10h10.50,timed_fluency,2021.2.3,MacIntel,62.5,NA,NA,NA,NA,NA,NA,NA,NA,NA,28,1.983,1,0,18,18,18,1,4 × 7 =,28,NA,NA
NA,NA,NA,NA,NA,NA,NA,NA,NA,NA,NA,NA,NA,NA,686,2022-02-01_10h10.50,timed_fluency,2021.2.3,MacIntel,62.5,NA,NA,NA,NA,NA,NA,NA,NA,NA,18,1.667,1,0,19,19,19,1,2 × 9 =,18,NA,NA
NA,NA,NA,NA,NA,NA,NA,NA,NA,NA,NA,NA,NA,NA,686,2022-02-01_10h10.50,timed_fluency,2021.2.3,MacIntel,62.5,NA,NA,NA,NA,NA,NA,NA,NA,NA,76,2.199,0,0,20,20,20,1,9 × 8 =,72,NA,NA
NA,NA,NA,NA,NA,NA,NA,NA,NA,NA,NA,NA,NA,NA,686,2022-02-01_10h10.50,timed_fluency,2021.2.3,MacIntel,62.5,NA,NA,NA,NA,NA,NA,NA,NA,NA,42,2.3,1,0,21,21,21,1,7 × 6 =,42,NA,NA
NA,NA,NA,NA,NA,NA,NA,NA,NA,NA,NA,NA,NA,NA,686,2022-02-01_10h10.50,timed_fluency,2021.2.3,MacIntel,62.5,NA,NA,NA,NA,NA,NA,NA,NA,NA,54,1.648,1,0,22,22,22,1,6 × 9 =,54,NA,NA
NA,NA,NA,NA,NA,NA,NA,NA,NA,NA,NA,NA,NA,NA,686,2022-02-01_10h10.50,timed_fluency,2021.2.3,MacIntel,62.5,NA,NA,NA,NA,NA,NA,NA,NA,NA,45,1.9,1,0,23,23,23,1,9 × 5 =,45,NA,NA
NA,NA,NA,NA,NA,NA,NA,NA,NA,NA,NA,NA,NA,NA,686,2022-02-01_10h10.50,timed_fluency,2021.2.3,MacIntel,62.5,NA,NA,NA,NA,NA,NA,NA,NA,NA,56,1.648,1,0,24,24,24,1,8 × 7 =,56,NA,NA
NA,NA,NA,NA,NA,NA,NA,NA,NA,NA,NA,NA,NA,NA,686,2022-02-01_10h10.50,timed_fluency,2021.2.3,MacIntel,62.5,NA,NA,NA,NA,NA,NA,NA,NA,NA,36,1.567,1,0,25,25,25,1,6 × 6 =,36,NA,NA
NA,NA,NA,NA,NA,NA,NA,NA,NA,NA,NA,NA,NA,NA,686,2022-02-01_10h10.50,timed_fluency,2021.2.3,MacIntel,62.5,NA,NA,NA,NA,NA,NA,NA,NA,NA,35,2.116,1,0,26,26,26,1,5 × 7 =,35,NA,NA
NA,NA,NA,NA,NA,NA,NA,NA,NA,NA,NA,NA,NA,NA,686,2022-02-01_10h10.50,timed_fluency,2021.2.3,MacIntel,62.5,NA,NA,NA,NA,NA,NA,NA,NA,NA,36,4.366,1,0,27,27,27,1,4 × 9 =,36,NA,NA
NA,NA,NA,NA,NA,NA,NA,NA,NA,NA,NA,NA,NA,NA,686,2022-02-01_10h10.50,timed_fluency,2021.2.3,MacIntel,62.5,NA,NA,NA,NA,NA,NA,NA,NA,NA,48,2.565,1,0,28,28,28,1,8 × 6 =,48,NA,NA
NA,NA,NA,NA,NA,NA,NA,NA,NA,NA,NA,NA,NA,NA,686,2022-02-01_10h10.50,timed_fluency,2021.2.3,MacIntel,62.5,NA,NA,NA,NA,NA,NA,NA,NA,NA,35,2.183,0,0,29,29,29,1,9 × 7 =,63,NA,NA
NA,NA,NA,NA,NA,NA,NA,NA,NA,NA,NA,NA,NA,NA,686,2022-02-01_10h10.50,timed_fluency,2021.2.3,MacIntel,62.5,NA,NA,NA,NA,NA,NA,NA,NA,NA,12,1.499,1,0,30,30,30,1,4 × 3 =,12,NA,NA
NA,NA,NA,NA,NA,NA,NA,NA,NA,NA,NA,NA,NA,NA,686,2022-02-01_10h10.50,timed_fluency,2021.2.3,MacIntel,62.5,NA,NA,NA,NA,NA,NA,NA,NA,NA,25,1.517,1,0,31,31,31,1,5 × 5 =,25,NA,NA
NA,NA,NA,NA,NA,NA,NA,NA,NA,NA,NA,NA,NA,NA,686,2022-02-01_10h10.50,timed_fluency,2021.2.3,MacIntel,62.5,NA,NA,NA,NA,NA,NA,NA,NA,NA,6,1.616,1,0,32,32,32,1,3 × 2 =,6,NA,NA
NA,NA,NA,NA,NA,NA,NA,NA,NA,NA,NA,NA,NA,NA,686,2022-02-01_10h10.50,timed_fluency,2021.2.3,MacIntel,62.5,NA,NA,NA,NA,NA,NA,NA,NA,NA,20,1.483,1,0,33,33,33,1,5 × 4 =,20,NA,NA
NA,NA,NA,NA,NA,NA,NA,NA,NA,NA,NA,NA,NA,NA,686,2022-02-01_10h10.50,timed_fluency,2021.2.3,MacIntel,62.5,NA,NA,NA,NA,NA,NA,NA,NA,NA,8,1.367,1,0,34,34,34,1,4 × 2 =,8,NA,NA
NA,NA,NA,NA,NA,NA,NA,NA,NA,NA,NA,NA,NA,NA,686,2022-02-01_10h10.50,timed_fluency,2021.2.3,MacIntel,62.5,NA,NA,NA,NA,NA,NA,NA,NA,NA,12,1.266,1,0,35,35,35,1,2 × 6 =,12,NA,NA
NA,NA,NA,NA,NA,NA,NA,NA,NA,NA,NA,NA,NA,NA,686,2022-02-01_10h10.50,timed_fluency,2021.2.3,MacIntel,62.5,NA,NA,NA,NA,NA,NA,NA,NA,NA,15,1.799,1,0,36,36,36,1,3 × 5 =,15,NA,NA
NA,NA,NA,NA,NA,NA,NA,NA,NA,NA,NA,NA,NA,NA,686,2022-02-01_10h10.50,timed_fluency,2021.2.3,MacIntel,62.5,NA,NA,NA,NA,NA,NA,NA,NA,NA,18,1.55,1,0,37,37,37,1,6 × 3 =,18,NA,NA
NA,NA,NA,NA,NA,NA,NA,NA,NA,NA,NA,NA,NA,NA,686,2022-02-01_10h10.50,timed_fluency,2021.2.3,MacIntel,62.5,NA,NA,NA,NA,NA,NA,NA,NA,NA,10,1.265,1,0,38,38,38,1,2 × 5 =,10,NA,NA
NA,NA,NA,NA,NA,NA,NA,NA,NA,NA,NA,NA,NA,NA,686,2022-02-01_10h10.50,timed_fluency,2021.2.3,MacIntel,62.5,NA,NA,NA,NA,NA,NA,NA,NA,NA,32,2.233,1,0,39,39,39,1,4 × 8 =,32,NA,NA
NA,NA,NA,NA,NA,NA,NA,NA,NA,NA,NA,NA,NA,NA,686,2022-02-01_10h10.50,timed_fluency,2021.2.3,MacIntel,62.5,NA,NA,NA,NA,NA,NA,NA,NA,NA,24,1.5,1,0,40,40,40,1,3 × 8 =,24,NA,NA
NA,NA,NA,NA,NA,NA,NA,NA,NA,NA,NA,NA,NA,NA,686,2022-02-01_10h10.50,timed_fluency,2021.2.3,MacIntel,62.5,NA,NA,NA,NA,NA,NA,NA,NA,NA,30,1.449,1,0,41,41,41,1,5 × 6 =,30,NA,NA
NA,NA,NA,NA,NA,NA,NA,NA,NA,NA,NA,NA,NA,NA,686,2022-02-01_10h10.50,timed_fluency,2021.2.3,MacIntel,62.5,NA,NA,NA,NA,NA,NA,NA,NA,NA,14,1.801,1,0,42,42,42,1,2 × 7 =,14,NA,NA
NA,NA,NA,NA,NA,NA,NA,NA,NA,NA,NA,NA,NA,NA,686,2022-02-01_10h10.50,timed_fluency,2021.2.3,MacIntel,62.5,NA,NA,NA,NA,NA,NA,NA,NA,NA,24,1.466,1,0,43,43,43,1,6 × 4 =,24,NA,NA
NA,NA,NA,NA,NA,NA,NA,NA,NA,NA,NA,NA,NA,NA,686,2022-02-01_10h10.50,timed_fluency,2021.2.3,MacIntel,62.5,NA,NA,NA,NA,NA,NA,NA,NA,NA,21,1.349,1,0,44,44,44,1,3 × 7 =,21,NA,NA
NA,NA,NA,NA,NA,NA,NA,NA,NA,NA,NA,NA,NA,NA,686,2022-02-01_10h10.50,timed_fluency,2021.2.3,MacIntel,62.5,NA,NA,NA,NA,NA,NA,NA,NA,NA,81,3.116,1,0,45,45,45,1,9 × 9 =,81,NA,NA
NA,NA,NA,NA,NA,NA,NA,NA,NA,NA,NA,NA,NA,NA,686,2022-02-01_10h10.50,timed_fluency,2021.2.3,MacIntel,62.5,NA,NA,NA,NA,NA,NA,NA,NA,NA,16,1.783,1,0,46,46,46,1,8 × 2 =,16,NA,NA
NA,NA,NA,NA,NA,NA,NA,NA,NA,NA,NA,NA,NA,NA,686,2022-02-01_10h10.50,timed_fluency,2021.2.3,MacIntel,62.5,NA,NA,NA,NA,NA,NA,NA,NA,NA,48,2.133,1,0,47,47,47,1,6 × 8 =,48,NA,NA
NA,NA,NA,NA,NA,NA,NA,NA,NA,NA,NA,NA,NA,NA,686,2022-02-01_10h10.50,timed_fluency,2021.2.3,MacIntel,62.5,NA,NA,NA,NA,NA,NA,NA,NA,NA,28,1.751,1,0,48,48,48,1,7 × 4 =,28,NA,NA
NA,NA,NA,NA,NA,NA,NA,NA,NA,NA,NA,NA,NA,NA,686,2022-02-01_10h10.50,timed_fluency,2021.2.3,MacIntel,62.5,NA,NA,NA,NA,NA,NA,NA,NA,NA,18,1.499,1,0,49,49,49,1,9 × 2 =,18,NA,NA
NA,NA,NA,NA,NA,NA,NA,NA,NA,NA,NA,NA,NA,NA,686,2022-02-01_10h10.50,timed_fluency,2021.2.3,MacIntel,62.5,NA,NA,NA,NA,NA,NA,NA,NA,NA,35,1.616,1,0,50,50,50,1,7 × 5 =,35,NA,NA
NA,NA,NA,NA,NA,NA,NA,NA,NA,NA,NA,NA,NA,NA,686,2022-02-01_10h10.50,timed_fluency,2021.2.3,MacIntel,62.5,NA,NA,NA,NA,NA,NA,NA,NA,NA,NA,NA,0,0,51,51,51,1,9 × 4 =,36,NA,NA
NA,NA,NA,NA,NA,NA,NA,NA,NA,NA,NA,NA,NA,NA,686,2022-02-01_10h10.50,timed_fluency,2021.2.3,MacIntel,62.5,NA,NA,NA,NA,NA,NA,NA,NA,NA,NA,NA,NA,NA,NA,NA,NA,NA,NA,NA,space,6.394
"[1536,746]",space,1.6279,space,0.9327,36,3.84,1,0,0,0,19,1,36,687,2022-02-01_18h57.52.373,timed_fluency,2021.2.3,Win32,60.3427468,NA,NA,NA,NA,NA,NA,NA,NA,NA,NA,NA,NA,NA,NA,NA,NA,NA,NA,NA,NA,NA
NA,NA,NA,NA,NA,48,3.2127,1,0,1,1,23,1,48,687,2022-02-01_18h57.52.373,timed_fluency,2021.2.3,Win32,60.3427468,NA,NA,NA,NA,NA,NA,NA,NA,NA,NA,NA,NA,NA,NA,NA,NA,NA,NA,NA,NA,NA
NA,NA,NA,NA,NA,8,1.8982,1,0,2,2,2,1,8,687,2022-02-01_18h57.52.373,timed_fluency,2021.2.3,Win32,60.3427468,NA,NA,NA,NA,NA,NA,NA,NA,NA,NA,NA,NA,NA,NA,NA,NA,NA,NA,NA,NA,NA
NA,NA,NA,NA,NA,6,1.6314,1,0,3,3,1,1,6,687,2022-02-01_18h57.52.373,timed_fluency,2021.2.3,Win32,60.3427468,NA,NA,NA,NA,NA,NA,NA,NA,NA,NA,NA,NA,NA,NA,NA,NA,NA,NA,NA,NA,NA
NA,NA,NA,NA,NA,9,1.3479,1,0,4,4,3,1,9,687,2022-02-01_18h57.52.373,timed_fluency,2021.2.3,Win32,60.3427468,NA,NA,NA,NA,NA,NA,NA,NA,NA,NA,NA,NA,NA,NA,NA,NA,NA,NA,NA,NA,NA
NA,NA,NA,NA,NA,25,1.9479,1,0,5,5,13,1,25,687,2022-02-01_18h57.52.373,timed_fluency,2021.2.3,Win32,60.3427468,NA,NA,NA,NA,NA,NA,NA,NA,NA,NA,NA,NA,NA,NA,NA,NA,NA,NA,NA,NA,NA
NA,NA,NA,NA,NA,15,1.6971,1,0,6,6,7,1,15,687,2022-02-01_18h57.52.373,timed_fluency,2021.2.3,Win32,60.3427468,NA,NA,NA,NA,NA,NA,NA,NA,NA,NA,NA,NA,NA,NA,NA,NA,NA,NA,NA,NA,NA
NA,NA,NA,NA,NA,21,1.1651,1,0,7,7,11,1,21,687,2022-02-01_18h57.52.373,timed_fluency,2021.2.3,Win32,60.3427468,NA,NA,NA,NA,NA,NA,NA,NA,NA,NA,NA,NA,NA,NA,NA,NA,NA,NA,NA,NA,NA
NA,NA,NA,NA,NA,72,1.8647,1,0,8,8,29,1,72,687,2022-02-01_18h57.52.373,timed_fluency,2021.2.3,Win32,60.3427468,NA,NA,NA,NA,NA,NA,NA,NA,NA,NA,NA,NA,NA,NA,NA,NA,NA,NA,NA,NA,NA
NA,NA,NA,NA,NA,64,1.6316,1,0,9,9,28,1,64,687,2022-02-01_18h57.52.373,timed_fluency,2021.2.3,Win32,60.3427468,NA,NA,NA,NA,NA,NA,NA,NA,NA,NA,NA,NA,NA,NA,NA,NA,NA,NA,NA,NA,NA
NA,NA,NA,NA,NA,54,1.382,1,0,10,10,25,1,54,687,2022-02-01_18h57.52.373,timed_fluency,2021.2.3,Win32,60.3427468,NA,NA,NA,NA,NA,NA,NA,NA,NA,NA,NA,NA,NA,NA,NA,NA,NA,NA,NA,NA,NA
NA,NA,NA,NA,NA,4,1.3815,1,0,11,11,0,1,4,687,2022-02-01_18h57.52.373,timed_fluency,2021.2.3,Win32,60.3427468,NA,NA,NA,NA,NA,NA,NA,NA,NA,NA,NA,NA,NA,NA,NA,NA,NA,NA,NA,NA,NA
NA,NA,NA,NA,NA,42,1.4817,1,0,12,12,21,1,42,687,2022-02-01_18h57.52.373,timed_fluency,2021.2.3,Win32,60.3427468,NA,NA,NA,NA,NA,NA,NA,NA,NA,NA,NA,NA,NA,NA,NA,NA,NA,NA,NA,NA,NA
NA,NA,NA,NA,NA,40,3.4305,1,0,13,13,20,1,40,687,2022-02-01_18h57.52.373,timed_fluency,2021.2.3,Win32,60.3427468,NA,NA,NA,NA,NA,NA,NA,NA,NA,NA,NA,NA,NA,NA,NA,NA,NA,NA,NA,NA,NA
NA,NA,NA,NA,NA,35,1.3593,1,0,14,14,18,1,35,687,2022-02-01_18h57.52.373,timed_fluency,2021.2.3,Win32,60.3427468,NA,NA,NA,NA,NA,NA,NA,NA,NA,NA,NA,NA,NA,NA,NA,NA,NA,NA,NA,NA,NA
NA,NA,NA,NA,NA,28,1.5154,1,0,15,15,15,1,28,687,2022-02-01_18h57.52.373,timed_fluency,2021.2.3,Win32,60.3427468,NA,NA,NA,NA,NA,NA,NA,NA,NA,NA,NA,NA,NA,NA,NA,NA,NA,NA,NA,NA,NA
NA,NA,NA,NA,NA,30,1.7309,1,0,16,16,16,1,30,687,2022-02-01_18h57.52.373,timed_fluency,2021.2.3,Win32,60.3427468,NA,NA,NA,NA,NA,NA,NA,NA,NA,NA,NA,NA,NA,NA,NA,NA,NA,NA,NA,NA,NA
NA,NA,NA,NA,NA,49,1.5989,1,0,17,17,24,1,49,687,2022-02-01_18h57.52.373,timed_fluency,2021.2.3,Win32,60.3427468,NA,NA,NA,NA,NA,NA,NA,NA,NA,NA,NA,NA,NA,NA,NA,NA,NA,NA,NA,NA,NA
NA,NA,NA,NA,NA,2,1.4154,0,0,18,18,14,1,27,687,2022-02-01_18h57.52.373,timed_fluency,2021.2.3,Win32,60.3427468,NA,NA,NA,NA,NA,NA,NA,NA,NA,NA,NA,NA,NA,NA,NA,NA,NA,NA,NA,NA,NA
NA,NA,NA,NA,NA,10,2.1311,1,0,19,19,4,1,10,687,2022-02-01_18h57.52.373,timed_fluency,2021.2.3,Win32,60.3427468,NA,NA,NA,NA,NA,NA,NA,NA,NA,NA,NA,NA,NA,NA,NA,NA,NA,NA,NA,NA,NA
NA,NA,NA,NA,NA,20,1.4482,1,0,20,20,10,1,20,687,2022-02-01_18h57.52.373,timed_fluency,2021.2.3,Win32,60.3427468,NA,NA,NA,NA,NA,NA,NA,NA,NA,NA,NA,NA,NA,NA,NA,NA,NA,NA,NA,NA,NA
NA,NA,NA,NA,NA,24,1.3486,1,0,21,21,12,1,24,687,2022-02-01_18h57.52.373,timed_fluency,2021.2.3,Win32,60.3427468,NA,NA,NA,NA,NA,NA,NA,NA,NA,NA,NA,NA,NA,NA,NA,NA,NA,NA,NA,NA,NA
