windowSize,welcomeResp.keys,welcomeResp.rt,typingInstr_resp.keys,typingInstr_resp.rt,TypedAnswer1,typingRT1,typingCorr,roundNo.thisRepN,roundNo.thisTrialN,roundNo.thisN,roundNo.thisIndex,roundNo.ran,typedStimulus,participant,date,expName,psychopyVersion,OS,frameRate,typingTrials.thisRepN,typingTrials.thisTrialN,typingTrials.thisN,typingTrials.thisIndex,typingTrials.ran,typingStimulusFile,roundNo,trialIstr_resp.keys,trialIstr_resp.rt,TypT_answer,typingRT,multiplyCorr,trials_presentation.thisRepN,trials_presentation.thisTrialN,trials_presentation.thisN,trials_presentation.thisIndex,trials_presentation.ran,problem,answers,exitkey_resp.keys,exitkey_resp.rt
"[1920,969]",space,0.8255,space,0.3136,10,1.5617,1,0,0,0,4,1,10,748,2022-01-20_23h45.52.739,timed_fluency,2021.2.3,Win32,146.713615,,,,,,,,,,,,,,,,,,,,,
,,,,,18,2.1242,1,0,1,1,9,1,18,748,2022-01-20_23h45.52.739,timed_fluency,2021.2.3,Win32,146.713615,,,,,,,,,,,,,,,,,,,,,
,,,,,72,2.2908,1,0,2,2,29,1,72,748,2022-01-20_23h45.52.739,timed_fluency,2021.2.3,Win32,146.713615,,,,,,,,,,,,,,,,,,,,,
,,,,,12,1.1561,1,0,3,3,5,1,12,748,2022-01-20_23h45.52.739,timed_fluency,2021.2.3,Win32,146.713615,,,,,,,,,,,,,,,,,,,,,
,,,,,16,2.0373,1,0,4,4,8,1,16,748,2022-01-20_23h45.52.739,timed_fluency,2021.2.3,Win32,146.713615,,,,,,,,,,,,,,,,,,,,,
,,,,,6,1.2285,1,0,5,5,1,1,6,748,2022-01-20_23h45.52.739,timed_fluency,2021.2.3,Win32,146.713615,,,,,,,,,,,,,,,,,,,,,
,,,,,56,1.7841,1,0,6,6,26,1,56,748,2022-01-20_23h45.52.739,timed_fluency,2021.2.3,Win32,146.713615,,,,,,,,,,,,,,,,,,,,,
,,,,,30,1.6801,1,0,7,7,16,1,30,748,2022-01-20_23h45.52.739,timed_fluency,2021.2.3,Win32,146.713615,,,,,,,,,,,,,,,,,,,,,
,,,,,15,1.5479,1,0,8,8,7,1,15,748,2022-01-20_23h45.52.739,timed_fluency,2021.2.3,Win32,146.713615,,,,,,,,,,,,,,,,,,,,,
,,,,,32,1.3051,1,0,9,9,17,1,32,748,2022-01-20_23h45.52.739,timed_fluency,2021.2.3,Win32,146.713615,,,,,,,,,,,,,,,,,,,,,
,,,,,63,2.0964,1,0,10,10,27,1,63,748,2022-01-20_23h45.52.739,timed_fluency,2021.2.3,Win32,146.713615,,,,,,,,,,,,,,,,,,,,,
,,,,,8,1.451,1,0,11,11,2,1,8,748,2022-01-20_23h45.52.739,timed_fluency,2021.2.3,Win32,146.713615,,,,,,,,,,,,,,,,,,,,,
,,,,,21,1.2981,1,0,12,12,11,1,21,748,2022-01-20_23h45.52.739,timed_fluency,2021.2.3,Win32,146.713615,,,,,,,,,,,,,,,,,,,,,
,,,,,81,2.43,1,0,13,13,30,1,81,748,2022-01-20_23h45.52.739,timed_fluency,2021.2.3,Win32,146.713615,,,,,,,,,,,,,,,,,,,,,
,,,,,4,1.2218,1,0,14,14,0,1,4,748,2022-01-20_23h45.52.739,timed_fluency,2021.2.3,Win32,146.713615,,,,,,,,,,,,,,,,,,,,,
,,,,,9,1.5896,1,0,15,15,3,1,9,748,2022-01-20_23h45.52.739,timed_fluency,2021.2.3,Win32,146.713615,,,,,,,,,,,,,,,,,,,,,
,,,,,14,1.2842,1,0,16,16,6,1,14,748,2022-01-20_23h45.52.739,timed_fluency,2021.2.3,Win32,146.713615,,,,,,,,,,,,,,,,,,,,,
,,,,,64,1.791,1,0,17,17,28,1,64,748,2022-01-20_23h45.52.739,timed_fluency,2021.2.3,Win32,146.713615,,,,,,,,,,,,,,,,,,,,,
,,,,,28,1.7701,1,0,18,18,15,1,28,748,2022-01-20_23h45.52.739,timed_fluency,2021.2.3,Win32,146.713615,,,,,,,,,,,,,,,,,,,,,
,,,,,20,2.3605,1,0,19,19,10,1,20,748,2022-01-20_23h45.52.739,timed_fluency,2021.2.3,Win32,146.713615,,,,,,,,,,,,,,,,,,,,,
,,,,,49,1.8259,1,0,20,20,24,1,49,748,2022-01-20_23h45.52.739,timed_fluency,2021.2.3,Win32,146.713615,,,,,,,,,,,,,,,,,,,,,
,,,,,54,1.548,1,0,21,21,25,1,54,748,2022-01-20_23h45.52.739,timed_fluency,2021.2.3,Win32,146.713615,,,,,,,,,,,,,,,,,,,,,
,,,,,27,1.6663,1,0,22,22,14,1,27,748,2022-01-20_23h45.52.739,timed_fluency,2021.2.3,Win32,146.713615,,,,,,,,,,,,,,,,,,,,,
,,,,,24,1.5133,1,0,23,23,12,1,24,748,2022-01-20_23h45.52.739,timed_fluency,2021.2.3,Win32,146.713615,,,,,,,,,,,,,,,,,,,,,
,,,,,45,1.673,1,0,24,24,22,1,45,748,2022-01-20_23h45.52.739,timed_fluency,2021.2.3,Win32,146.713615,,,,,,,,,,,,,,,,,,,,,
,,,,,40,1.8328,1,0,25,25,20,1,40,748,2022-01-20_23h45.52.739,timed_fluency,2021.2.3,Win32,146.713615,,,,,,,,,,,,,,,,,,,,,
,,,,,36,2.1105,1,0,26,26,19,1,36,748,2022-01-20_23h45.52.739,timed_fluency,2021.2.3,Win32,146.713615,,,,,,,,,,,,,,,,,,,,,
,,,,,35,1.4368,1,0,27,27,18,1,35,748,2022-01-20_23h45.52.739,timed_fluency,2021.2.3,Win32,146.713615,,,,,,,,,,,,,,,,,,,,,
,,,,,25,1.4233,1,0,28,28,13,1,25,748,2022-01-20_23h45.52.739,timed_fluency,2021.2.3,Win32,146.713615,,,,,,,,,,,,,,,,,,,,,
,,,,,48,2.173,1,0,29,29,23,1,48,748,2022-01-20_23h45.52.739,timed_fluency,2021.2.3,Win32,146.713615,,,,,,,,,,,,,,,,,,,,,
,,,,,42,1.4788,1,0,30,30,21,1,42,748,2022-01-20_23h45.52.739,timed_fluency,2021.2.3,Win32,146.713615,,,,,,,,,,,,,,,,,,,,,
,,,,,,,,,,,,,,748,2022-01-20_23h45.52.739,timed_fluency,2021.2.3,Win32,146.713615,0,0,0,0,1,typing.xlsx,1,,,,,,,,,,,,,,
,,,,,40,1.5475,1,0,0,0,20,1,40,748,2022-01-20_23h45.52.739,timed_fluency,2021.2.3,Win32,146.713615,,,,,,,,,,,,,,,,,,,,,
,,,,,32,2.0689,1,0,1,1,17,1,32,748,2022-01-20_23h45.52.739,timed_fluency,2021.2.3,Win32,146.713615,,,,,,,,,,,,,,,,,,,,,
,,,,,30,1.9161,1,0,2,2,16,1,30,748,2022-01-20_23h45.52.739,timed_fluency,2021.2.3,Win32,146.713615,,,,,,,,,,,,,,,,,,,,,
,,,,,20,1.5199,1,0,3,3,10,1,20,748,2022-01-20_23h45.52.739,timed_fluency,2021.2.3,Win32,146.713615,,,,,,,,,,,,,,,,,,,,,
,,,,,54,2.2284,1,0,4,4,25,1,54,748,2022-01-20_23h45.52.739,timed_fluency,2021.2.3,Win32,146.713615,,,,,,,,,,,,,,,,,,,,,
,,,,,9,1.6939,1,0,5,5,3,1,9,748,2022-01-20_23h45.52.739,timed_fluency,2021.2.3,Win32,146.713615,,,,,,,,,,,,,,,,,,,,,
,,,,,63,2.4577,1,0,6,6,27,1,63,748,2022-01-20_23h45.52.739,timed_fluency,2021.2.3,Win32,146.713615,,,,,,,,,,,,,,,,,,,,,
,,,,,4,1.0975,1,0,7,7,0,1,4,748,2022-01-20_23h45.52.739,timed_fluency,2021.2.3,Win32,146.713615,,,,,,,,,,,,,,,,,,,,,
,,,,,16,1.6316,1,0,8,8,8,1,16,748,2022-01-20_23h45.52.739,timed_fluency,2021.2.3,Win32,146.713615,,,,,,,,,,,,,,,,,,,,,
,,,,,48,1.9646,1,0,9,9,23,1,48,748,2022-01-20_23h45.52.739,timed_fluency,2021.2.3,Win32,146.713615,,,,,,,,,,,,,,,,,,,,,
,,,,,24,1.2358,1,0,10,10,12,1,24,748,2022-01-20_23h45.52.739,timed_fluency,2021.2.3,Win32,146.713615,,,,,,,,,,,,,,,,,,,,,
,,,,,49,1.7772,1,0,11,11,24,1,49,748,2022-01-20_23h45.52.739,timed_fluency,2021.2.3,Win32,146.713615,,,,,,,,,,,,,,,,,,,,,
,,,,,36,1.7911,1,0,12,12,19,1,36,748,2022-01-20_23h45.52.739,timed_fluency,2021.2.3,Win32,146.713615,,,,,,,,,,,,,,,,,,,,,
,,,,,25,1.4162,1,0,13,13,13,1,25,748,2022-01-20_23h45.52.739,timed_fluency,2021.2.3,Win32,146.713615,,,,,,,,,,,,,,,,,,,,,
,,,,,8,1.6451,1,0,14,14,2,1,8,748,2022-01-20_23h45.52.739,timed_fluency,2021.2.3,Win32,146.713615,,,,,,,,,,,,,,,,,,,,,
,,,,,72,2.1591,1,0,15,15,29,1,72,748,2022-01-20_23h45.52.739,timed_fluency,2021.2.3,Win32,146.713615,,,,,,,,,,,,,,,,,,,,,
,,,,,56,2.0133,1,0,16,16,26,1,56,748,2022-01-20_23h45.52.739,timed_fluency,2021.2.3,Win32,146.713615,,,,,,,,,,,,,,,,,,,,,
,,,,,28,1.8606,1,0,17,17,15,1,28,748,2022-01-20_23h45.52.739,timed_fluency,2021.2.3,Win32,146.713615,,,,,,,,,,,,,,,,,,,,,
,,,,,64,1.8328,1,0,18,18,28,1,64,748,2022-01-20_23h45.52.739,timed_fluency,2021.2.3,Win32,146.713615,,,,,,,,,,,,,,,,,,,,,
,,,,,81,2.305,1,0,19,19,30,1,81,748,2022-01-20_23h45.52.739,timed_fluency,2021.2.3,Win32,146.713615,,,,,,,,,,,,,,,,,,,,,
,,,,,21,1.4299,1,0,20,20,11,1,21,748,2022-01-20_23h45.52.739,timed_fluency,2021.2.3,Win32,146.713615,,,,,,,,,,,,,,,,,,,,,
,,,,,14,1.3119,1,0,21,21,6,1,14,748,2022-01-20_23h45.52.739,timed_fluency,2021.2.3,Win32,146.713615,,,,,,,,,,,,,,,,,,,,,
,,,,,45,1.451,1,0,22,22,22,1,45,748,2022-01-20_23h45.52.739,timed_fluency,2021.2.3,Win32,146.713615,,,,,,,,,,,,,,,,,,,,,
,,,,,15,1.4508,1,0,23,23,7,1,15,748,2022-01-20_23h45.52.739,timed_fluency,2021.2.3,Win32,146.713615,,,,,,,,,,,,,,,,,,,,,
,,,,,12,1.2148,1,0,24,24,5,1,12,748,2022-01-20_23h45.52.739,timed_fluency,2021.2.3,Win32,146.713615,,,,,,,,,,,,,,,,,,,,,
,,,,,35,1.5828,1,0,25,25,18,1,35,748,2022-01-20_23h45.52.739,timed_fluency,2021.2.3,Win32,146.713615,,,,,,,,,,,,,,,,,,,,,
,,,,,10,1.4995,1,0,26,26,4,1,10,748,2022-01-20_23h45.52.739,timed_fluency,2021.2.3,Win32,146.713615,,,,,,,,,,,,,,,,,,,,,
,,,,,6,1.2567,1,0,27,27,1,1,6,748,2022-01-20_23h45.52.739,timed_fluency,2021.2.3,Win32,146.713615,,,,,,,,,,,,,,,,,,,,,
,,,,,42,1.6382,1,0,28,28,21,1,42,748,2022-01-20_23h45.52.739,timed_fluency,2021.2.3,Win32,146.713615,,,,,,,,,,,,,,,,,,,,,
,,,,,27,1.6591,1,0,29,29,14,1,27,748,2022-01-20_23h45.52.739,timed_fluency,2021.2.3,Win32,146.713615,,,,,,,,,,,,,,,,,,,,,
,,,,,18,1.7842,1,0,30,30,9,1,18,748,2022-01-20_23h45.52.739,timed_fluency,2021.2.3,Win32,146.713615,,,,,,,,,,,,,,,,,,,,,
,,,,,,,,,,,,,,748,2022-01-20_23h45.52.739,timed_fluency,2021.2.3,Win32,146.713615,0,1,1,1,1,typing.xlsx,2,,,,,,,,,,,,,,
,,,,,,,,,,,,,,748,2022-01-20_23h45.52.739,timed_fluency,2021.2.3,Win32,146.713615,,,,,,,,space,1.7572,6,1.7858,1,0,0,0,0,1,2 × 3 =,6,,
,,,,,,,,,,,,,,748,2022-01-20_23h45.52.739,timed_fluency,2021.2.3,Win32,146.713615,,,,,,,,,,40,2.1654,1,0,1,1,1,1,5 × 8 =,40,,
,,,,,,,,,,,,,,748,2022-01-20_23h45.52.739,timed_fluency,2021.2.3,Win32,146.713615,,,,,,,,,,12,1.4433,1,0,2,2,2,1,3 × 4 =,12,,
,,,,,,,,,,,,,,748,2022-01-20_23h45.52.739,timed_fluency,2021.2.3,Win32,146.713615,,,,,,,,,,15,1.5685,1,0,3,3,3,1,5 × 3 =,15,,
,,,,,,,,,,,,,,748,2022-01-20_23h45.52.739,timed_fluency,2021.2.3,Win32,146.713615,,,,,,,,,,8,1.8742,1,0,4,4,4,1,2 × 4 =,8,,
,,,,,,,,,,,,,,748,2022-01-20_23h45.52.739,timed_fluency,2021.2.3,Win32,146.713615,,,,,,,,,,4,1.27,1,0,5,5,5,1,2 × 2 =,4,,
,,,,,,,,,,,,,,748,2022-01-20_23h45.52.739,timed_fluency,2021.2.3,Win32,146.713615,,,,,,,,,,20,2.3878,1,0,6,6,6,1,4 × 5 =,20,,
,,,,,,,,,,,,,,748,2022-01-20_23h45.52.739,timed_fluency,2021.2.3,Win32,146.713615,,,,,,,,,,9,1.8116,1,0,7,7,7,1,3 × 3 =,9,,
,,,,,,,,,,,,,,748,2022-01-20_23h45.52.739,timed_fluency,2021.2.3,Win32,146.713615,,,,,,,,,,10,1.7284,1,0,8,8,8,1,5 × 2 =,10,,
,,,,,,,,,,,,,,748,2022-01-20_23h45.52.739,timed_fluency,2021.2.3,Win32,146.713615,,,,,,,,,,16,1.9017,1,0,9,9,9,1,4 × 4 =,16,,
,,,,,,,,,,,,,,748,2022-01-20_23h45.52.739,timed_fluency,2021.2.3,Win32,146.713615,,,,,,,,,,24,2.9714,1,0,10,10,10,1,8 × 3 =,24,,
,,,,,,,,,,,,,,748,2022-01-20_23h45.52.739,timed_fluency,2021.2.3,Win32,146.713615,,,,,,,,,,30,1.985,1,0,11,11,11,1,6 × 5 =,30,,
,,,,,,,,,,,,,,748,2022-01-20_23h45.52.739,timed_fluency,2021.2.3,Win32,146.713615,,,,,,,,,,14,1.6382,1,0,12,12,12,1,7 × 2 =,14,,
,,,,,,,,,,,,,,748,2022-01-20_23h45.52.739,timed_fluency,2021.2.3,Win32,146.713615,,,,,,,,,,27,3.4019,1,0,13,13,13,1,3 × 9 =,27,,
,,,,,,,,,,,,,,748,2022-01-20_23h45.52.739,timed_fluency,2021.2.3,Win32,146.713615,,,,,,,,,,16,1.7225,1,0,14,14,14,1,2 × 8 =,16,,
,,,,,,,,,,,,,,748,2022-01-20_23h45.52.739,timed_fluency,2021.2.3,Win32,146.713615,,,,,,,,,,24,1.9506,1,0,15,15,15,1,4 × 6 =,24,,
,,,,,,,,,,,,,,748,2022-01-20_23h45.52.739,timed_fluency,2021.2.3,Win32,146.713615,,,,,,,,,,21,1.4782,1,0,16,16,16,1,7 × 3 =,21,,
,,,,,,,,,,,,,,748,2022-01-20_23h45.52.739,timed_fluency,2021.2.3,Win32,146.713615,,,,,,,,,,18,2.5338,0,0,17,17,17,1,9 × 3 =,27,,
,,,,,,,,,,,,,,748,2022-01-20_23h45.52.739,timed_fluency,2021.2.3,Win32,146.713615,,,,,,,,,,28,2.8956,1,0,18,18,18,1,4 × 7 =,28,,
,,,,,,,,,,,,,,748,2022-01-20_23h45.52.739,timed_fluency,2021.2.3,Win32,146.713615,,,,,,,,,,18,2.4742,1,0,19,19,19,1,2 × 9 =,18,,
,,,,,,,,,,,,,,748,2022-01-20_23h45.52.739,timed_fluency,2021.2.3,Win32,146.713615,,,,,,,,,,72,2.7602,1,0,20,20,20,1,9 × 8 =,72,,
,,,,,,,,,,,,,,748,2022-01-20_23h45.52.739,timed_fluency,2021.2.3,Win32,146.713615,,,,,,,,,,42,6.7146,1,0,21,21,21,1,7 × 6 =,42,,
,,,,,,,,,,,,,,748,2022-01-20_23h45.52.739,timed_fluency,2021.2.3,Win32,146.713615,,,,,,,,,,54,2.8261,1,0,22,22,22,1,6 × 9 =,54,,
,,,,,,,,,,,,,,748,2022-01-20_23h45.52.739,timed_fluency,2021.2.3,Win32,146.713615,,,,,,,,,,45,2.2564,1,0,23,23,23,1,9 × 5 =,45,,
,,,,,,,,,,,,,,748,2022-01-20_23h45.52.739,timed_fluency,2021.2.3,Win32,146.713615,,,,,,,,,,56,2.1311,1,0,24,24,24,1,8 × 7 =,56,,
,,,,,,,,,,,,,,748,2022-01-20_23h45.52.739,timed_fluency,2021.2.3,Win32,146.713615,,,,,,,,,,36,2.2422,1,0,25,25,25,1,6 × 6 =,36,,
,,,,,,,,,,,,,,748,2022-01-20_23h45.52.739,timed_fluency,2021.2.3,Win32,146.713615,,,,,,,,,,35,2.8736,1,0,26,26,26,1,5 × 7 =,35,,
,,,,,,,,,,,,,,748,2022-01-20_23h45.52.739,timed_fluency,2021.2.3,Win32,146.713615,,,,,,,,,,36,4.6029,1,0,27,27,27,1,4 × 9 =,36,,
,,,,,,,,,,,,,,748,2022-01-20_23h45.52.739,timed_fluency,2021.2.3,Win32,146.713615,,,,,,,,,,48,2.236,1,0,28,28,28,1,8 × 6 =,48,,
,,,,,,,,,,,,,,748,2022-01-20_23h45.52.739,timed_fluency,2021.2.3,Win32,146.713615,,,,,,,,,,63,3.7489,1,0,29,29,29,1,9 × 7 =,63,,
,,,,,,,,,,,,,,748,2022-01-20_23h45.52.739,timed_fluency,2021.2.3,Win32,146.713615,,,,,,,,,,12,1.451,1,0,30,30,30,1,4 × 3 =,12,,
,,,,,,,,,,,,,,748,2022-01-20_23h45.52.739,timed_fluency,2021.2.3,Win32,146.713615,,,,,,,,,,25,2.0615,1,0,31,31,31,1,5 × 5 =,25,,
,,,,,,,,,,,,,,748,2022-01-20_23h45.52.739,timed_fluency,2021.2.3,Win32,146.713615,,,,,,,,,,6,1.7766,1,0,32,32,32,1,3 × 2 =,6,,
,,,,,,,,,,,,,,748,2022-01-20_23h45.52.739,timed_fluency,2021.2.3,Win32,146.713615,,,,,,,,,,20,1.8049,1,0,33,33,33,1,5 × 4 =,20,,
,,,,,,,,,,,,,,748,2022-01-20_23h45.52.739,timed_fluency,2021.2.3,Win32,146.713615,,,,,,,,,,8,2.1585,1,0,34,34,34,1,4 × 2 =,8,,
,,,,,,,,,,,,,,748,2022-01-20_23h45.52.739,timed_fluency,2021.2.3,Win32,146.713615,,,,,,,,,,12,1.4231,1,0,35,35,35,1,2 × 6 =,12,,
,,,,,,,,,,,,,,748,2022-01-20_23h45.52.739,timed_fluency,2021.2.3,Win32,146.713615,,,,,,,,,,15,1.7004,1,0,36,36,36,1,3 × 5 =,15,,
,,,,,,,,,,,,,,748,2022-01-20_23h45.52.739,timed_fluency,2021.2.3,Win32,146.713615,,,,,,,,,,18,1.8951,1,0,37,37,37,1,6 × 3 =,18,,
,,,,,,,,,,,,,,748,2022-01-20_23h45.52.739,timed_fluency,2021.2.3,Win32,146.713615,,,,,,,,,,10,1.6589,1,0,38,38,38,1,2 × 5 =,10,,
,,,,,,,,,,,,,,748,2022-01-20_23h45.52.739,timed_fluency,2021.2.3,Win32,146.713615,,,,,,,,,,,,0,0,39,39,39,1,4 × 8 =,32,,
,,,,,,,,,,,,,,748,2022-01-20_23h45.52.739,timed_fluency,2021.2.3,Win32,146.713615,,,,,,,,,,,,,,,,,,,,space,2.9031
