welcomeKey_resp.keys,welcomeKey_resp.rt,X Scale,Y Scale,rt_resp_4.keys,rt_resp_4.corr,rt_resp_4.rt,speedtest_2.thisRepN,speedtest_2.thisTrialN,speedtest_2.thisN,speedtest_2.thisIndex,speedtest_2.ran,numberSc,posX,positionLayout,participant,date,expName,psychopyVersion,OS,frameRate,ct_instrresp.keys,ct_instrresp.rt,key_resp_2.keys,key_resp_2.rt,ct_keyResp.keys,ct_keyResp.corr,ct_keyResp.rt,trials.thisRepN,trials.thisTrialN,trials.thisN,trials.thisIndex,trials.ran,leftNo,rightNo,displayProblem,numDistance,leftNo_size,rightNo_size,Dims,keyAnswer,TS_Loop.thisRepN,TS_Loop.thisTrialN,TS_Loop.thisN,TS_Loop.thisIndex,TS_Loop.ran,Condition,ActionInst,instrImage,mltptaskInst_resp.keys,mltptaskInst_resp.rt,continue_resp_2.keys,continue_resp_2.rt,multp_Answer,multi_RT,multiplyCorr,LoopingMultiply.thisRepN,LoopingMultiply.thisTrialN,LoopingMultiply.thisN,LoopingMultiply.thisIndex,LoopingMultiply.ran,factor1,multiplySign,factor2,multliplyProblem,physicalSize,orderOperand,sizeF1,sizeF2,mult_answer,trials_stroop.thisRepN,trials_stroop.thisTrialN,trials_stroop.thisN,trials_stroop.thisIndex,trials_stroop.ran,multiplicationFile,esckey_resp_2.keys,esckey_resp_2.rt
y,26.8141,47.1,40.9,right,1,1.5782,0,0,0,15,1,9,200,right,764,2022-01-23_20h26.01.160,multiplicationStroop,2021.2.3,Win32,59.23468783,,,,,,,,,,,,,,,,,,,,,,,,,,,,,,,,,,,,,,,,,,,,,,,,,,,,,,,,,
,,,,right,1,0.5425,0,1,1,10,1,3,200,right,764,2022-01-23_20h26.01.160,multiplicationStroop,2021.2.3,Win32,59.23468783,,,,,,,,,,,,,,,,,,,,,,,,,,,,,,,,,,,,,,,,,,,,,,,,,,,,,,,,,
,,,,right,1,0.5344,0,2,2,12,1,6,200,right,764,2022-01-23_20h26.01.160,multiplicationStroop,2021.2.3,Win32,59.23468783,,,,,,,,,,,,,,,,,,,,,,,,,,,,,,,,,,,,,,,,,,,,,,,,,,,,,,,,,
,,,,left,1,0.9092,0,3,3,5,1,7,-200,left,764,2022-01-23_20h26.01.160,multiplicationStroop,2021.2.3,Win32,59.23468783,,,,,,,,,,,,,,,,,,,,,,,,,,,,,,,,,,,,,,,,,,,,,,,,,,,,,,,,,
,,,,left,1,0.5017,0,4,4,4,1,6,-200,left,764,2022-01-23_20h26.01.160,multiplicationStroop,2021.2.3,Win32,59.23468783,,,,,,,,,,,,,,,,,,,,,,,,,,,,,,,,,,,,,,,,,,,,,,,,,,,,,,,,,
,,,,right,1,0.9421,0,5,5,13,1,7,200,right,764,2022-01-23_20h26.01.160,multiplicationStroop,2021.2.3,Win32,59.23468783,,,,,,,,,,,,,,,,,,,,,,,,,,,,,,,,,,,,,,,,,,,,,,,,,,,,,,,,,
,,,,left,1,0.4847,0,6,6,1,1,2,-200,left,764,2022-01-23_20h26.01.160,multiplicationStroop,2021.2.3,Win32,59.23468783,,,,,,,,,,,,,,,,,,,,,,,,,,,,,,,,,,,,,,,,,,,,,,,,,,,,,,,,,
,,,,right,1,0.5866,0,7,7,8,1,1,200,right,764,2022-01-23_20h26.01.160,multiplicationStroop,2021.2.3,Win32,59.23468783,,,,,,,,,,,,,,,,,,,,,,,,,,,,,,,,,,,,,,,,,,,,,,,,,,,,,,,,,
,,,,left,1,0.4752,0,8,8,2,1,3,-200,left,764,2022-01-23_20h26.01.160,multiplicationStroop,2021.2.3,Win32,59.23468783,,,,,,,,,,,,,,,,,,,,,,,,,,,,,,,,,,,,,,,,,,,,,,,,,,,,,,,,,
,,,,right,1,0.4354,0,9,9,14,1,8,200,right,764,2022-01-23_20h26.01.160,multiplicationStroop,2021.2.3,Win32,59.23468783,,,,,,,,,,,,,,,,,,,,,,,,,,,,,,,,,,,,,,,,,,,,,,,,,,,,,,,,,
,,,,left,1,0.4583,0,10,10,7,1,9,-200,left,764,2022-01-23_20h26.01.160,multiplicationStroop,2021.2.3,Win32,59.23468783,,,,,,,,,,,,,,,,,,,,,,,,,,,,,,,,,,,,,,,,,,,,,,,,,,,,,,,,,
,,,,left,1,0.44,0,11,11,3,1,4,-200,left,764,2022-01-23_20h26.01.160,multiplicationStroop,2021.2.3,Win32,59.23468783,,,,,,,,,,,,,,,,,,,,,,,,,,,,,,,,,,,,,,,,,,,,,,,,,,,,,,,,,
,,,,right,1,0.4681,0,12,12,9,1,2,200,right,764,2022-01-23_20h26.01.160,multiplicationStroop,2021.2.3,Win32,59.23468783,,,,,,,,,,,,,,,,,,,,,,,,,,,,,,,,,,,,,,,,,,,,,,,,,,,,,,,,,
,,,,left,1,0.4857,0,13,13,6,1,8,-200,left,764,2022-01-23_20h26.01.160,multiplicationStroop,2021.2.3,Win32,59.23468783,,,,,,,,,,,,,,,,,,,,,,,,,,,,,,,,,,,,,,,,,,,,,,,,,,,,,,,,,
,,,,left,1,0.4453,0,14,14,0,1,1,-200,left,764,2022-01-23_20h26.01.160,multiplicationStroop,2021.2.3,Win32,59.23468783,,,,,,,,,,,,,,,,,,,,,,,,,,,,,,,,,,,,,,,,,,,,,,,,,,,,,,,,,
,,,,right,1,0.4685,0,15,15,11,1,4,200,right,764,2022-01-23_20h26.01.160,multiplicationStroop,2021.2.3,Win32,59.23468783,,,,,,,,,,,,,,,,,,,,,,,,,,,,,,,,,,,,,,,,,,,,,,,,,,,,,,,,,
,,,,left,1,0.3616,1,0,16,2,1,3,-200,left,764,2022-01-23_20h26.01.160,multiplicationStroop,2021.2.3,Win32,59.23468783,,,,,,,,,,,,,,,,,,,,,,,,,,,,,,,,,,,,,,,,,,,,,,,,,,,,,,,,,
,,,,right,1,0.3237,1,1,17,9,1,2,200,right,764,2022-01-23_20h26.01.160,multiplicationStroop,2021.2.3,Win32,59.23468783,,,,,,,,,,,,,,,,,,,,,,,,,,,,,,,,,,,,,,,,,,,,,,,,,,,,,,,,,
,,,,right,1,0.388,1,2,18,14,1,8,200,right,764,2022-01-23_20h26.01.160,multiplicationStroop,2021.2.3,Win32,59.23468783,,,,,,,,,,,,,,,,,,,,,,,,,,,,,,,,,,,,,,,,,,,,,,,,,,,,,,,,,
,,,,right,1,0.3448,1,3,19,13,1,7,200,right,764,2022-01-23_20h26.01.160,multiplicationStroop,2021.2.3,Win32,59.23468783,,,,,,,,,,,,,,,,,,,,,,,,,,,,,,,,,,,,,,,,,,,,,,,,,,,,,,,,,
,,,,right,1,0.3353,1,4,20,10,1,3,200,right,764,2022-01-23_20h26.01.160,multiplicationStroop,2021.2.3,Win32,59.23468783,,,,,,,,,,,,,,,,,,,,,,,,,,,,,,,,,,,,,,,,,,,,,,,,,,,,,,,,,
,,,,left,1,0.4693,1,5,21,3,1,4,-200,left,764,2022-01-23_20h26.01.160,multiplicationStroop,2021.2.3,Win32,59.23468783,,,,,,,,,,,,,,,,,,,,,,,,,,,,,,,,,,,,,,,,,,,,,,,,,,,,,,,,,
,,,,left,1,0.3522,1,6,22,5,1,7,-200,left,764,2022-01-23_20h26.01.160,multiplicationStroop,2021.2.3,Win32,59.23468783,,,,,,,,,,,,,,,,,,,,,,,,,,,,,,,,,,,,,,,,,,,,,,,,,,,,,,,,,
,,,,left,1,0.3383,1,7,23,7,1,9,-200,left,764,2022-01-23_20h26.01.160,multiplicationStroop,2021.2.3,Win32,59.23468783,,,,,,,,,,,,,,,,,,,,,,,,,,,,,,,,,,,,,,,,,,,,,,,,,,,,,,,,,
,,,,right,1,0.4177,1,8,24,8,1,1,200,right,764,2022-01-23_20h26.01.160,multiplicationStroop,2021.2.3,Win32,59.23468783,,,,,,,,,,,,,,,,,,,,,,,,,,,,,,,,,,,,,,,,,,,,,,,,,,,,,,,,,
,,,,right,1,0.3747,1,9,25,11,1,4,200,right,764,2022-01-23_20h26.01.160,multiplicationStroop,2021.2.3,Win32,59.23468783,,,,,,,,,,,,,,,,,,,,,,,,,,,,,,,,,,,,,,,,,,,,,,,,,,,,,,,,,
,,,,left,1,0.4016,1,10,26,6,1,8,-200,left,764,2022-01-23_20h26.01.160,multiplicationStroop,2021.2.3,Win32,59.23468783,,,,,,,,,,,,,,,,,,,,,,,,,,,,,,,,,,,,,,,,,,,,,,,,,,,,,,,,,
,,,,left,1,0.4096,1,11,27,0,1,1,-200,left,764,2022-01-23_20h26.01.160,multiplicationStroop,2021.2.3,Win32,59.23468783,,,,,,,,,,,,,,,,,,,,,,,,,,,,,,,,,,,,,,,,,,,,,,,,,,,,,,,,,
,,,,left,1,0.4021,1,12,28,4,1,6,-200,left,764,2022-01-23_20h26.01.160,multiplicationStroop,2021.2.3,Win32,59.23468783,,,,,,,,,,,,,,,,,,,,,,,,,,,,,,,,,,,,,,,,,,,,,,,,,,,,,,,,,
,,,,left,1,0.4025,1,13,29,1,1,2,-200,left,764,2022-01-23_20h26.01.160,multiplicationStroop,2021.2.3,Win32,59.23468783,,,,,,,,,,,,,,,,,,,,,,,,,,,,,,,,,,,,,,,,,,,,,,,,,,,,,,,,,
,,,,right,1,0.4552,1,14,30,15,1,9,200,right,764,2022-01-23_20h26.01.160,multiplicationStroop,2021.2.3,Win32,59.23468783,,,,,,,,,,,,,,,,,,,,,,,,,,,,,,,,,,,,,,,,,,,,,,,,,,,,,,,,,
,,,,right,1,0.4354,1,15,31,12,1,6,200,right,764,2022-01-23_20h26.01.160,multiplicationStroop,2021.2.3,Win32,59.23468783,,,,,,,,,,,,,,,,,,,,,,,,,,,,,,,,,,,,,,,,,,,,,,,,,,,,,,,,,
,,,,right,1,0.3679,2,0,32,10,1,3,200,right,764,2022-01-23_20h26.01.160,multiplicationStroop,2021.2.3,Win32,59.23468783,,,,,,,,,,,,,,,,,,,,,,,,,,,,,,,,,,,,,,,,,,,,,,,,,,,,,,,,,
,,,,right,1,0.3259,2,1,33,15,1,9,200,right,764,2022-01-23_20h26.01.160,multiplicationStroop,2021.2.3,Win32,59.23468783,,,,,,,,,,,,,,,,,,,,,,,,,,,,,,,,,,,,,,,,,,,,,,,,,,,,,,,,,
,,,,left,1,0.3846,2,2,34,5,1,7,-200,left,764,2022-01-23_20h26.01.160,multiplicationStroop,2021.2.3,Win32,59.23468783,,,,,,,,,,,,,,,,,,,,,,,,,,,,,,,,,,,,,,,,,,,,,,,,,,,,,,,,,
,,,,left,1,0.3519,2,3,35,2,1,3,-200,left,764,2022-01-23_20h26.01.160,multiplicationStroop,2021.2.3,Win32,59.23468783,,,,,,,,,,,,,,,,,,,,,,,,,,,,,,,,,,,,,,,,,,,,,,,,,,,,,,,,,
,,,,left,1,0.3179,2,4,36,7,1,9,-200,left,764,2022-01-23_20h26.01.160,multiplicationStroop,2021.2.3,Win32,59.23468783,,,,,,,,,,,,,,,,,,,,,,,,,,,,,,,,,,,,,,,,,,,,,,,,,,,,,,,,,
,,,,left,1,0.3345,2,5,37,1,1,2,-200,left,764,2022-01-23_20h26.01.160,multiplicationStroop,2021.2.3,Win32,59.23468783,,,,,,,,,,,,,,,,,,,,,,,,,,,,,,,,,,,,,,,,,,,,,,,,,,,,,,,,,
,,,,right,1,0.5347,2,6,38,13,1,7,200,right,764,2022-01-23_20h26.01.160,multiplicationStroop,2021.2.3,Win32,59.23468783,,,,,,,,,,,,,,,,,,,,,,,,,,,,,,,,,,,,,,,,,,,,,,,,,,,,,,,,,
,,,,right,1,0.3693,2,7,39,11,1,4,200,right,764,2022-01-23_20h26.01.160,multiplicationStroop,2021.2.3,Win32,59.23468783,,,,,,,,,,,,,,,,,,,,,,,,,,,,,,,,,,,,,,,,,,,,,,,,,,,,,,,,,
,,,,left,1,0.4691,2,8,40,6,1,8,-200,left,764,2022-01-23_20h26.01.160,multiplicationStroop,2021.2.3,Win32,59.23468783,,,,,,,,,,,,,,,,,,,,,,,,,,,,,,,,,,,,,,,,,,,,,,,,,,,,,,,,,
,,,,right,1,0.3734,2,9,41,14,1,8,200,right,764,2022-01-23_20h26.01.160,multiplicationStroop,2021.2.3,Win32,59.23468783,,,,,,,,,,,,,,,,,,,,,,,,,,,,,,,,,,,,,,,,,,,,,,,,,,,,,,,,,
,,,,right,1,0.4685,2,10,42,12,1,6,200,right,764,2022-01-23_20h26.01.160,multiplicationStroop,2021.2.3,Win32,59.23468783,,,,,,,,,,,,,,,,,,,,,,,,,,,,,,,,,,,,,,,,,,,,,,,,,,,,,,,,,
,,,,left,1,0.4343,2,11,43,4,1,6,-200,left,764,2022-01-23_20h26.01.160,multiplicationStroop,2021.2.3,Win32,59.23468783,,,,,,,,,,,,,,,,,,,,,,,,,,,,,,,,,,,,,,,,,,,,,,,,,,,,,,,,,
,,,,right,1,0.4035,2,12,44,8,1,1,200,right,764,2022-01-23_20h26.01.160,multiplicationStroop,2021.2.3,Win32,59.23468783,,,,,,,,,,,,,,,,,,,,,,,,,,,,,,,,,,,,,,,,,,,,,,,,,,,,,,,,,
,,,,right,1,0.5518,2,13,45,9,1,2,200,right,764,2022-01-23_20h26.01.160,multiplicationStroop,2021.2.3,Win32,59.23468783,,,,,,,,,,,,,,,,,,,,,,,,,,,,,,,,,,,,,,,,,,,,,,,,,,,,,,,,,
,,,,left,1,0.5525,2,14,46,0,1,1,-200,left,764,2022-01-23_20h26.01.160,multiplicationStroop,2021.2.3,Win32,59.23468783,,,,,,,,,,,,,,,,,,,,,,,,,,,,,,,,,,,,,,,,,,,,,,,,,,,,,,,,,
,,,,left,1,0.4607,2,15,47,3,1,4,-200,left,764,2022-01-23_20h26.01.160,multiplicationStroop,2021.2.3,Win32,59.23468783,,,,,,,,,,,,,,,,,,,,,,,,,,,,,,,,,,,,,,,,,,,,,,,,,,,,,,,,,
,,,,right,1,0.453,3,0,48,8,1,1,200,right,764,2022-01-23_20h26.01.160,multiplicationStroop,2021.2.3,Win32,59.23468783,,,,,,,,,,,,,,,,,,,,,,,,,,,,,,,,,,,,,,,,,,,,,,,,,,,,,,,,,
,,,,right,1,0.5367,3,1,49,11,1,4,200,right,764,2022-01-23_20h26.01.160,multiplicationStroop,2021.2.3,Win32,59.23468783,,,,,,,,,,,,,,,,,,,,,,,,,,,,,,,,,,,,,,,,,,,,,,,,,,,,,,,,,
,,,,left,1,0.5514,3,2,50,4,1,6,-200,left,764,2022-01-23_20h26.01.160,multiplicationStroop,2021.2.3,Win32,59.23468783,,,,,,,,,,,,,,,,,,,,,,,,,,,,,,,,,,,,,,,,,,,,,,,,,,,,,,,,,
,,,,right,1,0.3844,3,3,51,13,1,7,200,right,764,2022-01-23_20h26.01.160,multiplicationStroop,2021.2.3,Win32,59.23468783,,,,,,,,,,,,,,,,,,,,,,,,,,,,,,,,,,,,,,,,,,,,,,,,,,,,,,,,,
,,,,right,1,0.47,3,4,52,14,1,8,200,right,764,2022-01-23_20h26.01.160,multiplicationStroop,2021.2.3,Win32,59.23468783,,,,,,,,,,,,,,,,,,,,,,,,,,,,,,,,,,,,,,,,,,,,,,,,,,,,,,,,,
,,,,right,1,0.3901,3,5,53,9,1,2,200,right,764,2022-01-23_20h26.01.160,multiplicationStroop,2021.2.3,Win32,59.23468783,,,,,,,,,,,,,,,,,,,,,,,,,,,,,,,,,,,,,,,,,,,,,,,,,,,,,,,,,
,,,,left,1,0.5186,3,6,54,1,1,2,-200,left,764,2022-01-23_20h26.01.160,multiplicationStroop,2021.2.3,Win32,59.23468783,,,,,,,,,,,,,,,,,,,,,,,,,,,,,,,,,,,,,,,,,,,,,,,,,,,,,,,,,
,,,,right,1,0.3386,3,7,55,15,1,9,200,right,764,2022-01-23_20h26.01.160,multiplicationStroop,2021.2.3,Win32,59.23468783,,,,,,,,,,,,,,,,,,,,,,,,,,,,,,,,,,,,,,,,,,,,,,,,,,,,,,,,,
,,,,left,1,0.6777,3,8,56,3,1,4,-200,left,764,2022-01-23_20h26.01.160,multiplicationStroop,2021.2.3,Win32,59.23468783,,,,,,,,,,,,,,,,,,,,,,,,,,,,,,,,,,,,,,,,,,,,,,,,,,,,,,,,,
,,,,left,1,0.4546,3,9,57,5,1,7,-200,left,764,2022-01-23_20h26.01.160,multiplicationStroop,2021.2.3,Win32,59.23468783,,,,,,,,,,,,,,,,,,,,,,,,,,,,,,,,,,,,,,,,,,,,,,,,,,,,,,,,,
,,,,right,1,0.3678,3,10,58,10,1,3,200,right,764,2022-01-23_20h26.01.160,multiplicationStroop,2021.2.3,Win32,59.23468783,,,,,,,,,,,,,,,,,,,,,,,,,,,,,,,,,,,,,,,,,,,,,,,,,,,,,,,,,
,,,,left,1,0.3918,3,11,59,7,1,9,-200,left,764,2022-01-23_20h26.01.160,multiplicationStroop,2021.2.3,Win32,59.23468783,,,,,,,,,,,,,,,,,,,,,,,,,,,,,,,,,,,,,,,,,,,,,,,,,,,,,,,,,
,,,,right,1,0.3844,3,12,60,12,1,6,200,right,764,2022-01-23_20h26.01.160,multiplicationStroop,2021.2.3,Win32,59.23468783,,,,,,,,,,,,,,,,,,,,,,,,,,,,,,,,,,,,,,,,,,,,,,,,,,,,,,,,,
,,,,left,1,0.4348,3,13,61,6,1,8,-200,left,764,2022-01-23_20h26.01.160,multiplicationStroop,2021.2.3,Win32,59.23468783,,,,,,,,,,,,,,,,,,,,,,,,,,,,,,,,,,,,,,,,,,,,,,,,,,,,,,,,,
,,,,left,1,0.4448,3,14,62,0,1,1,-200,left,764,2022-01-23_20h26.01.160,multiplicationStroop,2021.2.3,Win32,59.23468783,,,,,,,,,,,,,,,,,,,,,,,,,,,,,,,,,,,,,,,,,,,,,,,,,,,,,,,,,
,,,,left,1,0.3189,3,15,63,2,1,3,-200,left,764,2022-01-23_20h26.01.160,multiplicationStroop,2021.2.3,Win32,59.23468783,,,,,,,,,,,,,,,,,,,,,,,,,,,,,,,,,,,,,,,,,,,,,,,,,,,,,,,,,
,,,,,,,,,,,,,,,764,2022-01-23_20h26.01.160,multiplicationStroop,2021.2.3,Win32,59.23468783,space,14.661,space,8.4628,left,1,1.0746,0,0,0,7,1,9,8,9 | 8,1,1.9756,1.4111,congruent,left,,,,,,,,,,,,,,,,,,,,,,,,,,,,,,,,,,,,,
,,,,,,,,,,,,,,,764,2022-01-23_20h26.01.160,multiplicationStroop,2021.2.3,Win32,59.23468783,,,,,left,0,0.5447,0,1,1,66,1,3,3,3 | 3,0,1.9756,1.4111,neutral,right,,,,,,,,,,,,,,,,,,,,,,,,,,,,,,,,,,,,,
,,,,,,,,,,,,,,,764,2022-01-23_20h26.01.160,multiplicationStroop,2021.2.3,Win32,59.23468783,,,,,left,1,0.6705,0,2,2,41,1,2,7,2 | 7,5,1.9756,1.4111,incongruent,left,,,,,,,,,,,,,,,,,,,,,,,,,,,,,,,,,,,,,
,,,,,,,,,,,,,,,764,2022-01-23_20h26.01.160,multiplicationStroop,2021.2.3,Win32,59.23468783,,,,,right,1,0.6007,0,3,3,9,1,2,4,2 | 4,2,1.4111,1.9756,congruent,right,,,,,,,,,,,,,,,,,,,,,,,,,,,,,,,,,,,,,
,,,,,,,,,,,,,,,764,2022-01-23_20h26.01.160,multiplicationStroop,2021.2.3,Win32,59.23468783,,,,,right,1,0.4459,0,4,4,59,1,7,7,7 | 7,0,1.4111,1.9756,neutral,right,,,,,,,,,,,,,,,,,,,,,,,,,,,,,,,,,,,,,
,,,,,,,,,,,,,,,764,2022-01-23_20h26.01.160,multiplicationStroop,2021.2.3,Win32,59.23468783,,,,,left,1,1.1432,0,5,5,48,1,1,1,1 | 1,0,1.9756,1.4111,neutral,left,,,,,,,,,,,,,,,,,,,,,,,,,,,,,,,,,,,,,
,,,,,,,,,,,,,,,764,2022-01-23_20h26.01.160,multiplicationStroop,2021.2.3,Win32,59.23468783,,,,,right,1,0.5905,0,6,6,58,1,6,6,6 | 6,0,1.4111,1.9756,neutral,right,,,,,,,,,,,,,,,,,,,,,,,,,,,,,,,,,,,,,
,,,,,,,,,,,,,,,764,2022-01-23_20h26.01.160,multiplicationStroop,2021.2.3,Win32,59.23468783,,,,,left,1,0.9412,0,7,7,27,1,8,9,8 | 9,1,1.9756,1.4111,incongruent,left,,,,,,,,,,,,,,,,,,,,,,,,,,,,,,,,,,,,,
,,,,,,,,,,,,,,,764,2022-01-23_20h26.01.160,multiplicationStroop,2021.2.3,Win32,59.23468783,,,,,right,1,0.5289,0,8,8,63,1,9,9,9 | 9,0,1.4111,1.9756,neutral,right,,,,,,,,,,,,,,,,,,,,,,,,,,,,,,,,,,,,,
,,,,,,,,,,,,,,,764,2022-01-23_20h26.01.160,multiplicationStroop,2021.2.3,Win32,59.23468783,,,,,right,1,0.493,0,9,9,3,1,8,9,8 | 9,1,1.4111,1.9756,congruent,right,,,,,,,,,,,,,,,,,,,,,,,,,,,,,,,,,,,,,
,,,,,,,,,,,,,,,764,2022-01-23_20h26.01.160,multiplicationStroop,2021.2.3,Win32,59.23468783,,,,,right,1,0.556,0,10,10,18,1,3,8,3 | 8,5,1.4111,1.9756,congruent,right,,,,,,,,,,,,,,,,,,,,,,,,,,,,,,,,,,,,,
,,,,,,,,,,,,,,,764,2022-01-23_20h26.01.160,multiplicationStroop,2021.2.3,Win32,59.23468783,,,,,left,1,0.5236,0,11,11,49,1,3,3,3 | 3,0,1.9756,1.4111,neutral,left,,,,,,,,,,,,,,,,,,,,,,,,,,,,,,,,,,,,,
,,,,,,,,,,,,,,,764,2022-01-23_20h26.01.160,multiplicationStroop,2021.2.3,Win32,59.23468783,,,,,left,1,0.4383,0,12,12,5,1,4,3,4 | 3,1,1.9756,1.4111,congruent,left,,,,,,,,,,,,,,,,,,,,,,,,,,,,,,,,,,,,,
,,,,,,,,,,,,,,,764,2022-01-23_20h26.01.160,multiplicationStroop,2021.2.3,Win32,59.23468783,,,,,left,1,0.5176,0,13,13,70,1,8,8,8 | 8,0,1.9756,1.4111,neutral,left,,,,,,,,,,,,,,,,,,,,,,,,,,,,,,,,,,,,,
,,,,,,,,,,,,,,,764,2022-01-23_20h26.01.160,multiplicationStroop,2021.2.3,Win32,59.23468783,,,,,right,1,0.4547,0,14,14,67,1,4,4,4 | 4,0,1.4111,1.9756,neutral,right,,,,,,,,,,,,,,,,,,,,,,,,,,,,,,,,,,,,,
,,,,,,,,,,,,,,,764,2022-01-23_20h26.01.160,multiplicationStroop,2021.2.3,Win32,59.23468783,,,,,right,1,0.4481,0,15,15,30,1,7,6,7 | 6,1,1.4111,1.9756,incongruent,right,,,,,,,,,,,,,,,,,,,,,,,,,,,,,,,,,,,,,
,,,,,,,,,,,,,,,764,2022-01-23_20h26.01.160,multiplicationStroop,2021.2.3,Win32,59.23468783,,,,,right,1,0.4997,0,16,16,39,1,9,7,9 | 7,2,1.4111,1.9756,incongruent,right,,,,,,,,,,,,,,,,,,,,,,,,,,,,,,,,,,,,,
,,,,,,,,,,,,,,,764,2022-01-23_20h26.01.160,multiplicationStroop,2021.2.3,Win32,59.23468783,,,,,left,1,0.501,0,17,17,43,1,4,9,4 | 9,5,1.9756,1.4111,incongruent,left,,,,,,,,,,,,,,,,,,,,,,,,,,,,,,,,,,,,,
,,,,,,,,,,,,,,,764,2022-01-23_20h26.01.160,multiplicationStroop,2021.2.3,Win32,59.23468783,,,,,left,1,0.4794,0,18,18,22,1,8,3,8 | 3,5,1.9756,1.4111,congruent,left,,,,,,,,,,,,,,,,,,,,,,,,,,,,,,,,,,,,,
,,,,,,,,,,,,,,,764,2022-01-23_20h26.01.160,multiplicationStroop,2021.2.3,Win32,59.23468783,,,,,right,1,0.5106,0,19,19,38,1,8,6,8 | 6,2,1.4111,1.9756,incongruent,right,,,,,,,,,,,,,,,,,,,,,,,,,,,,,,,,,,,,,
,,,,,,,,,,,,,,,764,2022-01-23_20h26.01.160,multiplicationStroop,2021.2.3,Win32,59.23468783,,,,,left,1,0.4744,0,20,20,6,1,7,6,7 | 6,1,1.9756,1.4111,congruent,left,,,,,,,,,,,,,,,,,,,,,,,,,,,,,,,,,,,,,
,,,,,,,,,,,,,,,764,2022-01-23_20h26.01.160,multiplicationStroop,2021.2.3,Win32,59.23468783,,,,,left,1,0.4904,0,21,21,32,1,1,3,1 | 3,2,1.9756,1.4111,incongruent,left,,,,,,,,,,,,,,,,,,,,,,,,,,,,,,,,,,,,,
,,,,,,,,,,,,,,,764,2022-01-23_20h26.01.160,multiplicationStroop,2021.2.3,Win32,59.23468783,,,,,right,1,0.5471,0,22,22,62,1,8,8,8 | 8,0,1.4111,1.9756,neutral,right,,,,,,,,,,,,,,,,,,,,,,,,,,,,,,,,,,,,,
,,,,,,,,,,,,,,,764,2022-01-23_20h26.01.160,multiplicationStroop,2021.2.3,Win32,59.23468783,,,,,right,1,0.4885,0,23,23,2,1,6,7,6 | 7,1,1.4111,1.9756,congruent,right,,,,,,,,,,,,,,,,,,,,,,,,,,,,,,,,,,,,,
,,,,,,,,,,,,,,,764,2022-01-23_20h26.01.160,multiplicationStroop,2021.2.3,Win32,59.23468783,,,,,left,1,0.429,0,24,24,53,1,4,4,4 | 4,0,1.9756,1.4111,neutral,left,,,,,,,,,,,,,,,,,,,,,,,,,,,,,,,,,,,,,
,,,,,,,,,,,,,,,764,2022-01-23_20h26.01.160,multiplicationStroop,2021.2.3,Win32,59.23468783,,,,,right,1,0.539,0,25,25,11,1,7,9,7 | 9,2,1.4111,1.9756,congruent,right,,,,,,,,,,,,,,,,,,,,,,,,,,,,,,,,,,,,,
,,,,,,,,,,,,,,,764,2022-01-23_20h26.01.160,multiplicationStroop,2021.2.3,Win32,59.23468783,,,,,left,0,0.4485,0,26,26,64,1,1,1,1 | 1,0,1.9756,1.4111,neutral,right,,,,,,,,,,,,,,,,,,,,,,,,,,,,,,,,,,,,,
,,,,,,,,,,,,,,,764,2022-01-23_20h26.01.160,multiplicationStroop,2021.2.3,Win32,59.23468783,,,,,right,1,0.5601,0,27,27,29,1,4,3,4 | 3,1,1.4111,1.9756,incongruent,right,,,,,,,,,,,,,,,,,,,,,,,,,,,,,,,,,,,,,
,,,,,,,,,,,,,,,764,2022-01-23_20h26.01.160,multiplicationStroop,2021.2.3,Win32,59.23468783,,,,,right,0,0.5684,0,28,28,69,1,7,7,7 | 7,0,1.4111,1.9756,neutral,left,,,,,,,,,,,,,,,,,,,,,,,,,,,,,,,,,,,,,
,,,,,,,,,,,,,,,764,2022-01-23_20h26.01.160,multiplicationStroop,2021.2.3,Win32,59.23468783,,,,,right,1,0.8488,0,29,29,28,1,2,1,2 | 1,1,1.4111,1.9756,incongruent,right,,,,,,,,,,,,,,,,,,,,,,,,,,,,,,,,,,,,,
,,,,,,,,,,,,,,,764,2022-01-23_20h26.01.160,multiplicationStroop,2021.2.3,Win32,59.23468783,,,,,left,1,0.5476,0,30,30,52,1,2,2,2 | 2,0,1.9756,1.4111,neutral,left,,,,,,,,,,,,,,,,,,,,,,,,,,,,,,,,,,,,,
,,,,,,,,,,,,,,,764,2022-01-23_20h26.01.160,multiplicationStroop,2021.2.3,Win32,59.23468783,,,,,left,1,0.5053,0,31,31,40,1,1,6,1 | 6,5,1.9756,1.4111,incongruent,left,,,,,,,,,,,,,,,,,,,,,,,,,,,,,,,,,,,,,
,,,,,,,,,,,,,,,764,2022-01-23_20h26.01.160,multiplicationStroop,2021.2.3,Win32,59.23468783,,,,,right,1,0.7042,0,32,32,10,1,6,8,6 | 8,2,1.4111,1.9756,congruent,right,,,,,,,,,,,,,,,,,,,,,,,,,,,,,,,,,,,,,
,,,,,,,,,,,,,,,764,2022-01-23_20h26.01.160,multiplicationStroop,2021.2.3,Win32,59.23468783,,,,,right,1,0.6643,0,33,33,47,1,9,4,9 | 4,5,1.4111,1.9756,incongruent,right,,,,,,,,,,,,,,,,,,,,,,,,,,,,,,,,,,,,,
,,,,,,,,,,,,,,,764,2022-01-23_20h26.01.160,multiplicationStroop,2021.2.3,Win32,59.23468783,,,,,right,1,0.6105,0,34,34,31,1,9,8,9 | 8,1,1.4111,1.9756,incongruent,right,,,,,,,,,,,,,,,,,,,,,,,,,,,,,,,,,,,,,
,,,,,,,,,,,,,,,764,2022-01-23_20h26.01.160,multiplicationStroop,2021.2.3,Win32,59.23468783,,,,,left,1,0.4255,0,35,35,34,1,6,8,6 | 8,2,1.9756,1.4111,incongruent,left,,,,,,,,,,,,,,,,,,,,,,,,,,,,,,,,,,,,,
,,,,,,,,,,,,,,,764,2022-01-23_20h26.01.160,multiplicationStroop,2021.2.3,Win32,59.23468783,,,,,right,1,0.9127,0,36,36,61,1,4,4,4 | 4,0,1.4111,1.9756,neutral,right,,,,,,,,,,,,,,,,,,,,,,,,,,,,,,,,,,,,,
,,,,,,,,,,,,,,,764,2022-01-23_20h26.01.160,multiplicationStroop,2021.2.3,Win32,59.23468783,,,,,right,1,0.6593,0,37,37,8,1,1,3,1 | 3,2,1.4111,1.9756,congruent,right,,,,,,,,,,,,,,,,,,,,,,,,,,,,,,,,,,,,,
,,,,,,,,,,,,,,,764,2022-01-23_20h26.01.160,multiplicationStroop,2021.2.3,Win32,59.23468783,,,,,right,1,0.6734,0,38,38,36,1,3,1,3 | 1,2,1.4111,1.9756,incongruent,right,,,,,,,,,,,,,,,,,,,,,,,,,,,,,,,,,,,,,
,,,,,,,,,,,,,,,764,2022-01-23_20h26.01.160,multiplicationStroop,2021.2.3,Win32,59.23468783,,,,,left,1,0.4575,0,39,39,4,1,2,1,2 | 1,1,1.9756,1.4111,congruent,left,,,,,,,,,,,,,,,,,,,,,,,,,,,,,,,,,,,,,
,,,,,,,,,,,,,,,764,2022-01-23_20h26.01.160,multiplicationStroop,2021.2.3,Win32,59.23468783,,,,,right,1,0.5381,0,40,40,1,1,3,4,3 | 4,1,1.4111,1.9756,congruent,right,,,,,,,,,,,,,,,,,,,,,,,,,,,,,,,,,,,,,
,,,,,,,,,,,,,,,764,2022-01-23_20h26.01.160,multiplicationStroop,2021.2.3,Win32,59.23468783,,,,,right,0,0.5736,0,41,41,71,1,9,9,9 | 9,0,1.4111,1.9756,neutral,left,,,,,,,,,,,,,,,,,,,,,,,,,,,,,,,,,,,,,
,,,,,,,,,,,,,,,764,2022-01-23_20h26.01.160,multiplicationStroop,2021.2.3,Win32,59.23468783,,,,,left,1,0.4599,0,42,42,21,1,7,2,7 | 2,5,1.9756,1.4111,congruent,left,,,,,,,,,,,,,,,,,,,,,,,,,,,,,,,,,,,,,
,,,,,,,,,,,,,,,764,2022-01-23_20h26.01.160,multiplicationStroop,2021.2.3,Win32,59.23468783,,,,,left,1,0.4909,0,43,43,42,1,3,8,3 | 8,5,1.9756,1.4111,incongruent,left,,,,,,,,,,,,,,,,,,,,,,,,,,,,,,,,,,,,,
,,,,,,,,,,,,,,,764,2022-01-23_20h26.01.160,multiplicationStroop,2021.2.3,Win32,59.23468783,,,,,left,1,0.4775,0,44,44,55,1,9,9,9 | 9,0,1.9756,1.4111,neutral,left,,,,,,,,,,,,,,,,,,,,,,,,,,,,,,,,,,,,,
,,,,,,,,,,,,,,,764,2022-01-23_20h26.01.160,multiplicationStroop,2021.2.3,Win32,59.23468783,,,,,right,1,0.5642,0,45,45,37,1,4,2,4 | 2,2,1.4111,1.9756,incongruent,right,,,,,,,,,,,,,,,,,,,,,,,,,,,,,,,,,,,,,
,,,,,,,,,,,,,,,764,2022-01-23_20h26.01.160,multiplicationStroop,2021.2.3,Win32,59.23468783,,,,,left,1,0.5821,0,46,46,13,1,4,2,4 | 2,2,1.9756,1.4111,congruent,left,,,,,,,,,,,,,,,,,,,,,,,,,,,,,,,,,,,,,
,,,,,,,,,,,,,,,764,2022-01-23_20h26.01.160,multiplicationStroop,2021.2.3,Win32,59.23468783,,,,,right,1,0.493,0,47,47,44,1,6,1,6 | 1,5,1.4111,1.9756,incongruent,right,,,,,,,,,,,,,,,,,,,,,,,,,,,,,,,,,,,,,
,,,,,,,,,,,,,,,764,2022-01-23_20h26.01.160,multiplicationStroop,2021.2.3,Win32,59.23468783,,,,,left,1,0.4974,0,48,48,25,1,3,4,3 | 4,1,1.9756,1.4111,incongruent,left,,,,,,,,,,,,,,,,,,,,,,,,,,,,,,,,,,,,,
,,,,,,,,,,,,,,,764,2022-01-23_20h26.01.160,multiplicationStroop,2021.2.3,Win32,59.23468783,,,,,right,1,0.523,0,49,49,17,1,2,7,2 | 7,5,1.4111,1.9756,congruent,right,,,,,,,,,,,,,,,,,,,,,,,,,,,,,,,,,,,,,
,,,,,,,,,,,,,,,764,2022-01-23_20h26.01.160,multiplicationStroop,2021.2.3,Win32,59.23468783,,,,,left,1,0.5057,0,50,50,35,1,7,9,7 | 9,2,1.9756,1.4111,incongruent,left,,,,,,,,,,,,,,,,,,,,,,,,,,,,,,,,,,,,,
,,,,,,,,,,,,,,,764,2022-01-23_20h26.01.160,multiplicationStroop,2021.2.3,Win32,59.23468783,,,,,left,1,0.4989,0,51,51,26,1,6,7,6 | 7,1,1.9756,1.4111,incongruent,left,,,,,,,,,,,,,,,,,,,,,,,,,,,,,,,,,,,,,
,,,,,,,,,,,,,,,764,2022-01-23_20h26.01.160,multiplicationStroop,2021.2.3,Win32,59.23468783,,,,,right,1,0.7386,0,52,52,46,1,8,3,8 | 3,5,1.4111,1.9756,incongruent,right,,,,,,,,,,,,,,,,,,,,,,,,,,,,,,,,,,,,,
,,,,,,,,,,,,,,,764,2022-01-23_20h26.01.160,multiplicationStroop,2021.2.3,Win32,59.23468783,,,,,left,1,0.4213,0,53,53,23,1,9,4,9 | 4,5,1.9756,1.4111,congruent,left,,,,,,,,,,,,,,,,,,,,,,,,,,,,,,,,,,,,,
,,,,,,,,,,,,,,,764,2022-01-23_20h26.01.160,multiplicationStroop,2021.2.3,Win32,59.23468783,,,,,left,1,0.4918,0,54,54,51,1,8,8,8 | 8,0,1.9756,1.4111,neutral,left,,,,,,,,,,,,,,,,,,,,,,,,,,,,,,,,,,,,,
,,,,,,,,,,,,,,,764,2022-01-23_20h26.01.160,multiplicationStroop,2021.2.3,Win32,59.23468783,,,,,left,1,0.5069,0,55,55,24,1,1,2,1 | 2,1,1.9756,1.4111,incongruent,left,,,,,,,,,,,,,,,,,,,,,,,,,,,,,,,,,,,,,
,,,,,,,,,,,,,,,764,2022-01-23_20h26.01.160,multiplicationStroop,2021.2.3,Win32,59.23468783,,,,,right,1,0.6225,0,56,56,45,1,7,2,7 | 2,5,1.4111,1.9756,incongruent,right,,,,,,,,,,,,,,,,,,,,,,,,,,,,,,,,,,,,,
,,,,,,,,,,,,,,,764,2022-01-23_20h26.01.160,multiplicationStroop,2021.2.3,Win32,59.23468783,,,,,left,1,0.5389,0,57,57,54,1,7,7,7 | 7,0,1.9756,1.4111,neutral,left,,,,,,,,,,,,,,,,,,,,,,,,,,,,,,,,,,,,,
,,,,,,,,,,,,,,,764,2022-01-23_20h26.01.160,multiplicationStroop,2021.2.3,Win32,59.23468783,,,,,left,1,0.4631,0,58,58,20,1,6,1,6 | 1,5,1.9756,1.4111,congruent,left,,,,,,,,,,,,,,,,,,,,,,,,,,,,,,,,,,,,,
,,,,,,,,,,,,,,,764,2022-01-23_20h26.01.160,multiplicationStroop,2021.2.3,Win32,59.23468783,,,,,right,1,0.5124,0,59,59,56,1,1,1,1 | 1,0,1.4111,1.9756,neutral,right,,,,,,,,,,,,,,,,,,,,,,,,,,,,,,,,,,,,,
,,,,,,,,,,,,,,,764,2022-01-23_20h26.01.160,multiplicationStroop,2021.2.3,Win32,59.23468783,,,,,right,1,0.5583,0,60,60,65,1,2,2,2 | 2,0,1.4111,1.9756,neutral,right,,,,,,,,,,,,,,,,,,,,,,,,,,,,,,,,,,,,,
,,,,,,,,,,,,,,,764,2022-01-23_20h26.01.160,multiplicationStroop,2021.2.3,Win32,59.23468783,,,,,right,1,0.4779,0,61,61,0,1,1,2,1 | 2,1,1.4111,1.9756,congruent,right,,,,,,,,,,,,,,,,,,,,,,,,,,,,,,,,,,,,,
,,,,,,,,,,,,,,,764,2022-01-23_20h26.01.160,multiplicationStroop,2021.2.3,Win32,59.23468783,,,,,left,1,0.4793,0,62,62,68,1,6,6,6 | 6,0,1.9756,1.4111,neutral,left,,,,,,,,,,,,,,,,,,,,,,,,,,,,,,,,,,,,,
,,,,,,,,,,,,,,,764,2022-01-23_20h26.01.160,multiplicationStroop,2021.2.3,Win32,59.23468783,,,,,left,1,0.4074,0,63,63,15,1,9,7,9 | 7,2,1.9756,1.4111,congruent,left,,,,,,,,,,,,,,,,,,,,,,,,,,,,,,,,,,,,,
,,,,,,,,,,,,,,,764,2022-01-23_20h26.01.160,multiplicationStroop,2021.2.3,Win32,59.23468783,,,,,left,1,0.5404,0,64,64,33,1,2,4,2 | 4,2,1.9756,1.4111,incongruent,left,,,,,,,,,,,,,,,,,,,,,,,,,,,,,,,,,,,,,
,,,,,,,,,,,,,,,764,2022-01-23_20h26.01.160,multiplicationStroop,2021.2.3,Win32,59.23468783,,,,,left,1,0.4837,0,65,65,50,1,6,6,6 | 6,0,1.9756,1.4111,neutral,left,,,,,,,,,,,,,,,,,,,,,,,,,,,,,,,,,,,,,
,,,,,,,,,,,,,,,764,2022-01-23_20h26.01.160,multiplicationStroop,2021.2.3,Win32,59.23468783,,,,,right,1,0.5052,0,66,66,19,1,4,9,4 | 9,5,1.4111,1.9756,congruent,right,,,,,,,,,,,,,,,,,,,,,,,,,,,,,,,,,,,,,
,,,,,,,,,,,,,,,764,2022-01-23_20h26.01.160,multiplicationStroop,2021.2.3,Win32,59.23468783,,,,,left,1,0.4655,0,67,67,14,1,8,6,8 | 6,2,1.9756,1.4111,congruent,left,,,,,,,,,,,,,,,,,,,,,,,,,,,,,,,,,,,,,
,,,,,,,,,,,,,,,764,2022-01-23_20h26.01.160,multiplicationStroop,2021.2.3,Win32,59.23468783,,,,,right,1,0.4733,0,68,68,16,1,1,6,1 | 6,5,1.4111,1.9756,congruent,right,,,,,,,,,,,,,,,,,,,,,,,,,,,,,,,,,,,,,
,,,,,,,,,,,,,,,764,2022-01-23_20h26.01.160,multiplicationStroop,2021.2.3,Win32,59.23468783,,,,,right,1,0.5728,0,69,69,57,1,2,2,2 | 2,0,1.4111,1.9756,neutral,right,,,,,,,,,,,,,,,,,,,,,,,,,,,,,,,,,,,,,
,,,,,,,,,,,,,,,764,2022-01-23_20h26.01.160,multiplicationStroop,2021.2.3,Win32,59.23468783,,,,,right,1,0.6546,0,70,70,60,1,3,3,3 | 3,0,1.4111,1.9756,neutral,right,,,,,,,,,,,,,,,,,,,,,,,,,,,,,,,,,,,,,
,,,,,,,,,,,,,,,764,2022-01-23_20h26.01.160,multiplicationStroop,2021.2.3,Win32,59.23468783,,,,,left,1,0.4531,0,71,71,12,1,3,1,3 | 1,2,1.9756,1.4111,congruent,left,,,,,,,,,,,,,,,,,,,,,,,,,,,,,,,,,,,,,
,,,,,,,,,,,,,,,764,2022-01-23_20h26.01.160,multiplicationStroop,2021.2.3,Win32,59.23468783,,,,,,,,,,,,,,,,,,,,,0,0,0,1,1,stimulusFile/physical.xlsx,PHYSICALLY larger (larger font size).,images/physicallyLarger.png,,,,,,,,,,,,,,,,,,,,,,,,,,,,,
,,,,,,,,,,,,,,,764,2022-01-23_20h26.01.160,multiplicationStroop,2021.2.3,Win32,59.23468783,space,2.7143,space,3.3192,left,1,0.8729,0,0,0,15,1,9,7,9 | 7,2,1.9756,1.4111,congruent,left,,,,,,,,,,,,,,,,,,,,,,,,,,,,,,,,,,,,,
,,,,,,,,,,,,,,,764,2022-01-23_20h26.01.160,multiplicationStroop,2021.2.3,Win32,59.23468783,,,,,left,1,0.9071,0,1,1,61,1,4,2,4 | 2,2,1.6933,1.6933,neutral,left,,,,,,,,,,,,,,,,,,,,,,,,,,,,,,,,,,,,,
,,,,,,,,,,,,,,,764,2022-01-23_20h26.01.160,multiplicationStroop,2021.2.3,Win32,59.23468783,,,,,left,1,0.6874,0,2,2,44,1,6,1,6 | 1,5,1.4111,1.9756,incongruent,left,,,,,,,,,,,,,,,,,,,,,,,,,,,,,,,,,,,,,
,,,,,,,,,,,,,,,764,2022-01-23_20h26.01.160,multiplicationStroop,2021.2.3,Win32,59.23468783,,,,,left,1,0.5646,0,3,3,69,1,7,2,7 | 2,5,1.6933,1.6933,neutral,left,,,,,,,,,,,,,,,,,,,,,,,,,,,,,,,,,,,,,
,,,,,,,,,,,,,,,764,2022-01-23_20h26.01.160,multiplicationStroop,2021.2.3,Win32,59.23468783,,,,,left,1,1.2894,0,4,4,28,1,2,1,2 | 1,1,1.4111,1.9756,incongruent,left,,,,,,,,,,,,,,,,,,,,,,,,,,,,,,,,,,,,,
,,,,,,,,,,,,,,,764,2022-01-23_20h26.01.160,multiplicationStroop,2021.2.3,Win32,59.23468783,,,,,left,1,0.7585,0,5,5,52,1,2,1,2 | 1,1,1.6933,1.6933,neutral,left,,,,,,,,,,,,,,,,,,,,,,,,,,,,,,,,,,,,,
,,,,,,,,,,,,,,,764,2022-01-23_20h26.01.160,multiplicationStroop,2021.2.3,Win32,59.23468783,,,,,left,1,0.777,0,6,6,5,1,4,3,4 | 3,1,1.9756,1.4111,congruent,left,,,,,,,,,,,,,,,,,,,,,,,,,,,,,,,,,,,,,
,,,,,,,,,,,,,,,764,2022-01-23_20h26.01.160,multiplicationStroop,2021.2.3,Win32,59.23468783,,,,,left,1,0.8941,0,7,7,68,1,6,1,6 | 1,5,1.6933,1.6933,neutral,left,,,,,,,,,,,,,,,,,,,,,,,,,,,,,,,,,,,,,
,,,,,,,,,,,,,,,764,2022-01-23_20h26.01.160,multiplicationStroop,2021.2.3,Win32,59.23468783,,,,,left,1,0.8092,0,8,8,71,1,9,4,9 | 4,5,1.6933,1.6933,neutral,left,,,,,,,,,,,,,,,,,,,,,,,,,,,,,,,,,,,,,
,,,,,,,,,,,,,,,764,2022-01-23_20h26.01.160,multiplicationStroop,2021.2.3,Win32,59.23468783,,,,,right,1,1.3053,0,9,9,33,1,2,4,2 | 4,2,1.9756,1.4111,incongruent,right,,,,,,,,,,,,,,,,,,,,,,,,,,,,,,,,,,,,,
,,,,,,,,,,,,,,,764,2022-01-23_20h26.01.160,multiplicationStroop,2021.2.3,Win32,59.23468783,,,,,right,1,0.796,0,10,10,67,1,4,9,4 | 9,5,1.6933,1.6933,neutral,right,,,,,,,,,,,,,,,,,,,,,,,,,,,,,,,,,,,,,
,,,,,,,,,,,,,,,764,2022-01-23_20h26.01.160,multiplicationStroop,2021.2.3,Win32,59.23468783,,,,,right,1,0.5944,0,11,11,9,1,2,4,2 | 4,2,1.4111,1.9756,congruent,right,,,,,,,,,,,,,,,,,,,,,,,,,,,,,,,,,,,,,
,,,,,,,,,,,,,,,764,2022-01-23_20h26.01.160,multiplicationStroop,2021.2.3,Win32,59.23468783,,,,,left,1,0.8481,0,12,12,60,1,3,1,3 | 1,2,1.6933,1.6933,neutral,left,,,,,,,,,,,,,,,,,,,,,,,,,,,,,,,,,,,,,
,,,,,,,,,,,,,,,764,2022-01-23_20h26.01.160,multiplicationStroop,2021.2.3,Win32,59.23468783,,,,,left,1,1.006,0,13,13,53,1,4,3,4 | 3,1,1.6933,1.6933,neutral,left,,,,,,,,,,,,,,,,,,,,,,,,,,,,,,,,,,,,,
,,,,,,,,,,,,,,,764,2022-01-23_20h26.01.160,multiplicationStroop,2021.2.3,Win32,59.23468783,,,,,right,1,0.5572,0,14,14,16,1,1,6,1 | 6,5,1.4111,1.9756,congruent,right,,,,,,,,,,,,,,,,,,,,,,,,,,,,,,,,,,,,,
,,,,,,,,,,,,,,,764,2022-01-23_20h26.01.160,multiplicationStroop,2021.2.3,Win32,59.23468783,,,,,right,1,0.7208,0,15,15,42,1,3,8,3 | 8,5,1.9756,1.4111,incongruent,right,,,,,,,,,,,,,,,,,,,,,,,,,,,,,,,,,,,,,
,,,,,,,,,,,,,,,764,2022-01-23_20h26.01.160,multiplicationStroop,2021.2.3,Win32,59.23468783,,,,,right,1,0.5617,0,16,16,66,1,3,8,3 | 8,5,1.6933,1.6933,neutral,right,,,,,,,,,,,,,,,,,,,,,,,,,,,,,,,,,,,,,
,,,,,,,,,,,,,,,764,2022-01-23_20h26.01.160,multiplicationStroop,2021.2.3,Win32,59.23468783,,,,,right,1,0.9712,0,17,17,32,1,1,3,1 | 3,2,1.9756,1.4111,incongruent,right,,,,,,,,,,,,,,,,,,,,,,,,,,,,,,,,,,,,,
,,,,,,,,,,,,,,,764,2022-01-23_20h26.01.160,multiplicationStroop,2021.2.3,Win32,59.23468783,,,,,right,1,0.8271,0,18,18,0,1,1,2,1 | 2,1,1.4111,1.9756,congruent,right,,,,,,,,,,,,,,,,,,,,,,,,,,,,,,,,,,,,,
,,,,,,,,,,,,,,,764,2022-01-23_20h26.01.160,multiplicationStroop,2021.2.3,Win32,59.23468783,,,,,left,1,0.8044,0,19,19,6,1,7,6,7 | 6,1,1.9756,1.4111,congruent,left,,,,,,,,,,,,,,,,,,,,,,,,,,,,,,,,,,,,,
,,,,,,,,,,,,,,,764,2022-01-23_20h26.01.160,multiplicationStroop,2021.2.3,Win32,59.23468783,,,,,right,1,0.6102,0,20,20,8,1,1,3,1 | 3,2,1.4111,1.9756,congruent,right,,,,,,,,,,,,,,,,,,,,,,,,,,,,,,,,,,,,,
,,,,,,,,,,,,,,,764,2022-01-23_20h26.01.160,multiplicationStroop,2021.2.3,Win32,59.23468783,,,,,left,1,0.9621,0,21,21,63,1,9,7,9 | 7,2,1.6933,1.6933,neutral,left,,,,,,,,,,,,,,,,,,,,,,,,,,,,,,,,,,,,,
,,,,,,,,,,,,,,,764,2022-01-23_20h26.01.160,multiplicationStroop,2021.2.3,Win32,59.23468783,,,,,right,1,0.7484,0,22,22,10,1,6,8,6 | 8,2,1.4111,1.9756,congruent,right,,,,,,,,,,,,,,,,,,,,,,,,,,,,,,,,,,,,,
,,,,,,,,,,,,,,,764,2022-01-23_20h26.01.160,multiplicationStroop,2021.2.3,Win32,59.23468783,,,,,left,1,0.7727,0,23,23,47,1,9,4,9 | 4,5,1.4111,1.9756,incongruent,left,,,,,,,,,,,,,,,,,,,,,,,,,,,,,,,,,,,,,
,,,,,,,,,,,,,,,764,2022-01-23_20h26.01.160,multiplicationStroop,2021.2.3,Win32,59.23468783,,,,,right,1,0.7385,0,24,24,40,1,1,6,1 | 6,5,1.9756,1.4111,incongruent,right,,,,,,,,,,,,,,,,,,,,,,,,,,,,,,,,,,,,,
,,,,,,,,,,,,,,,764,2022-01-23_20h26.01.160,multiplicationStroop,2021.2.3,Win32,59.23468783,,,,,left,1,0.7212,0,25,25,37,1,4,2,4 | 2,2,1.4111,1.9756,incongruent,left,,,,,,,,,,,,,,,,,,,,,,,,,,,,,,,,,,,,,
,,,,,,,,,,,,,,,764,2022-01-23_20h26.01.160,multiplicationStroop,2021.2.3,Win32,59.23468783,,,,,right,1,0.88,0,26,26,25,1,3,4,3 | 4,1,1.9756,1.4111,incongruent,right,,,,,,,,,,,,,,,,,,,,,,,,,,,,,,,,,,,,,
,,,,,,,,,,,,,,,764,2022-01-23_20h26.01.160,multiplicationStroop,2021.2.3,Win32,59.23468783,,,,,right,1,0.7056,0,27,27,17,1,2,7,2 | 7,5,1.4111,1.9756,congruent,right,,,,,,,,,,,,,,,,,,,,,,,,,,,,,,,,,,,,,
,,,,,,,,,,,,,,,764,2022-01-23_20h26.01.160,multiplicationStroop,2021.2.3,Win32,59.23468783,,,,,right,1,0.7476,0,28,28,2,1,6,7,6 | 7,1,1.4111,1.9756,congruent,right,,,,,,,,,,,,,,,,,,,,,,,,,,,,,,,,,,,,,
,,,,,,,,,,,,,,,764,2022-01-23_20h26.01.160,multiplicationStroop,2021.2.3,Win32,59.23468783,,,,,left,1,0.866,0,29,29,55,1,9,8,9 | 8,1,1.6933,1.6933,neutral,left,,,,,,,,,,,,,,,,,,,,,,,,,,,,,,,,,,,,,
,,,,,,,,,,,,,,,764,2022-01-23_20h26.01.160,multiplicationStroop,2021.2.3,Win32,59.23468783,,,,,right,1,1.0165,0,30,30,49,1,3,4,3 | 4,1,1.6933,1.6933,neutral,right,,,,,,,,,,,,,,,,,,,,,,,,,,,,,,,,,,,,,
,,,,,,,,,,,,,,,764,2022-01-23_20h26.01.160,multiplicationStroop,2021.2.3,Win32,59.23468783,,,,,left,1,0.7939,0,31,31,45,1,7,2,7 | 2,5,1.4111,1.9756,incongruent,left,,,,,,,,,,,,,,,,,,,,,,,,,,,,,,,,,,,,,
,,,,,,,,,,,,,,,764,2022-01-23_20h26.01.160,multiplicationStroop,2021.2.3,Win32,59.23468783,,,,,left,1,0.7298,0,32,32,21,1,7,2,7 | 2,5,1.9756,1.4111,congruent,left,,,,,,,,,,,,,,,,,,,,,,,,,,,,,,,,,,,,,
,,,,,,,,,,,,,,,764,2022-01-23_20h26.01.160,multiplicationStroop,2021.2.3,Win32,59.23468783,,,,,left,1,0.6198,0,33,33,20,1,6,1,6 | 1,5,1.9756,1.4111,congruent,left,,,,,,,,,,,,,,,,,,,,,,,,,,,,,,,,,,,,,
,,,,,,,,,,,,,,,764,2022-01-23_20h26.01.160,multiplicationStroop,2021.2.3,Win32,59.23468783,,,,,left,1,0.7076,0,34,34,62,1,8,6,8 | 6,2,1.6933,1.6933,neutral,left,,,,,,,,,,,,,,,,,,,,,,,,,,,,,,,,,,,,,
,,,,,,,,,,,,,,,764,2022-01-23_20h26.01.160,multiplicationStroop,2021.2.3,Win32,59.23468783,,,,,right,1,0.5936,0,35,35,18,1,3,8,3 | 8,5,1.4111,1.9756,congruent,right,,,,,,,,,,,,,,,,,,,,,,,,,,,,,,,,,,,,,
,,,,,,,,,,,,,,,764,2022-01-23_20h26.01.160,multiplicationStroop,2021.2.3,Win32,59.23468783,,,,,right,1,0.5081,0,36,36,24,1,1,2,1 | 2,1,1.9756,1.4111,incongruent,right,,,,,,,,,,,,,,,,,,,,,,,,,,,,,,,,,,,,,
,,,,,,,,,,,,,,,764,2022-01-23_20h26.01.160,multiplicationStroop,2021.2.3,Win32,59.23468783,,,,,right,1,0.5893,0,37,37,35,1,7,9,7 | 9,2,1.9756,1.4111,incongruent,right,,,,,,,,,,,,,,,,,,,,,,,,,,,,,,,,,,,,,
,,,,,,,,,,,,,,,764,2022-01-23_20h26.01.160,multiplicationStroop,2021.2.3,Win32,59.23468783,,,,,right,1,0.725,0,38,38,26,1,6,7,6 | 7,1,1.9756,1.4111,incongruent,right,,,,,,,,,,,,,,,,,,,,,,,,,,,,,,,,,,,,,
,,,,,,,,,,,,,,,764,2022-01-23_20h26.01.160,multiplicationStroop,2021.2.3,Win32,59.23468783,,,,,right,1,0.594,0,39,39,27,1,8,9,8 | 9,1,1.9756,1.4111,incongruent,right,,,,,,,,,,,,,,,,,,,,,,,,,,,,,,,,,,,,,
,,,,,,,,,,,,,,,764,2022-01-23_20h26.01.160,multiplicationStroop,2021.2.3,Win32,59.23468783,,,,,right,1,0.6884,0,40,40,50,1,6,7,6 | 7,1,1.6933,1.6933,neutral,right,,,,,,,,,,,,,,,,,,,,,,,,,,,,,,,,,,,,,
,,,,,,,,,,,,,,,764,2022-01-23_20h26.01.160,multiplicationStroop,2021.2.3,Win32,59.23468783,,,,,left,1,0.5741,0,41,41,12,1,3,1,3 | 1,2,1.9756,1.4111,congruent,left,,,,,,,,,,,,,,,,,,,,,,,,,,,,,,,,,,,,,
,,,,,,,,,,,,,,,764,2022-01-23_20h26.01.160,multiplicationStroop,2021.2.3,Win32,59.23468783,,,,,right,1,0.6801,0,42,42,34,1,6,8,6 | 8,2,1.9756,1.4111,incongruent,right,,,,,,,,,,,,,,,,,,,,,,,,,,,,,,,,,,,,,
,,,,,,,,,,,,,,,764,2022-01-23_20h26.01.160,multiplicationStroop,2021.2.3,Win32,59.23468783,,,,,left,1,0.7438,0,43,43,54,1,7,6,7 | 6,1,1.6933,1.6933,neutral,left,,,,,,,,,,,,,,,,,,,,,,,,,,,,,,,,,,,,,
,,,,,,,,,,,,,,,764,2022-01-23_20h26.01.160,multiplicationStroop,2021.2.3,Win32,59.23468783,,,,,left,1,0.6083,0,44,44,22,1,8,3,8 | 3,5,1.9756,1.4111,congruent,left,,,,,,,,,,,,,,,,,,,,,,,,,,,,,,,,,,,,,
,,,,,,,,,,,,,,,764,2022-01-23_20h26.01.160,multiplicationStroop,2021.2.3,Win32,59.23468783,,,,,left,1,0.4923,0,45,45,23,1,9,4,9 | 4,5,1.9756,1.4111,congruent,left,,,,,,,,,,,,,,,,,,,,,,,,,,,,,,,,,,,,,
,,,,,,,,,,,,,,,764,2022-01-23_20h26.01.160,multiplicationStroop,2021.2.3,Win32,59.23468783,,,,,left,1,0.5393,0,46,46,4,1,2,1,2 | 1,1,1.9756,1.4111,congruent,left,,,,,,,,,,,,,,,,,,,,,,,,,,,,,,,,,,,,,
,,,,,,,,,,,,,,,764,2022-01-23_20h26.01.160,multiplicationStroop,2021.2.3,Win32,59.23468783,,,,,right,1,0.6011,0,47,47,51,1,8,9,8 | 9,1,1.6933,1.6933,neutral,right,,,,,,,,,,,,,,,,,,,,,,,,,,,,,,,,,,,,,
,,,,,,,,,,,,,,,764,2022-01-23_20h26.01.160,multiplicationStroop,2021.2.3,Win32,59.23468783,,,,,right,1,0.6431,0,48,48,41,1,2,7,2 | 7,5,1.9756,1.4111,incongruent,right,,,,,,,,,,,,,,,,,,,,,,,,,,,,,,,,,,,,,
,,,,,,,,,,,,,,,764,2022-01-23_20h26.01.160,multiplicationStroop,2021.2.3,Win32,59.23468783,,,,,left,1,0.5737,0,49,49,46,1,8,3,8 | 3,5,1.4111,1.9756,incongruent,left,,,,,,,,,,,,,,,,,,,,,,,,,,,,,,,,,,,,,
,,,,,,,,,,,,,,,764,2022-01-23_20h26.01.160,multiplicationStroop,2021.2.3,Win32,59.23468783,,,,,left,1,0.6464,0,50,50,70,1,8,3,8 | 3,5,1.6933,1.6933,neutral,left,,,,,,,,,,,,,,,,,,,,,,,,,,,,,,,,,,,,,
,,,,,,,,,,,,,,,764,2022-01-23_20h26.01.160,multiplicationStroop,2021.2.3,Win32,59.23468783,,,,,left,1,0.6109,0,51,51,31,1,9,8,9 | 8,1,1.4111,1.9756,incongruent,left,,,,,,,,,,,,,,,,,,,,,,,,,,,,,,,,,,,,,
,,,,,,,,,,,,,,,764,2022-01-23_20h26.01.160,multiplicationStroop,2021.2.3,Win32,59.23468783,,,,,right,1,0.8915,0,52,52,43,1,4,9,4 | 9,5,1.9756,1.4111,incongruent,right,,,,,,,,,,,,,,,,,,,,,,,,,,,,,,,,,,,,,
,,,,,,,,,,,,,,,764,2022-01-23_20h26.01.160,multiplicationStroop,2021.2.3,Win32,59.23468783,,,,,right,1,0.6404,0,53,53,64,1,1,6,1 | 6,5,1.6933,1.6933,neutral,right,,,,,,,,,,,,,,,,,,,,,,,,,,,,,,,,,,,,,
,,,,,,,,,,,,,,,764,2022-01-23_20h26.01.160,multiplicationStroop,2021.2.3,Win32,59.23468783,,,,,left,1,0.6715,0,54,54,7,1,9,8,9 | 8,1,1.9756,1.4111,congruent,left,,,,,,,,,,,,,,,,,,,,,,,,,,,,,,,,,,,,,
,,,,,,,,,,,,,,,764,2022-01-23_20h26.01.160,multiplicationStroop,2021.2.3,Win32,59.23468783,,,,,left,1,0.7058,0,55,55,39,1,9,7,9 | 7,2,1.4111,1.9756,incongruent,left,,,,,,,,,,,,,,,,,,,,,,,,,,,,,,,,,,,,,
,,,,,,,,,,,,,,,764,2022-01-23_20h26.01.160,multiplicationStroop,2021.2.3,Win32,59.23468783,,,,,right,1,0.6266,0,56,56,59,1,7,9,7 | 9,2,1.6933,1.6933,neutral,right,,,,,,,,,,,,,,,,,,,,,,,,,,,,,,,,,,,,,
,,,,,,,,,,,,,,,764,2022-01-23_20h26.01.160,multiplicationStroop,2021.2.3,Win32,59.23468783,,,,,right,1,0.8392,0,57,57,58,1,6,8,6 | 8,2,1.6933,1.6933,neutral,right,,,,,,,,,,,,,,,,,,,,,,,,,,,,,,,,,,,,,
,,,,,,,,,,,,,,,764,2022-01-23_20h26.01.160,multiplicationStroop,2021.2.3,Win32,59.23468783,,,,,right,1,0.5308,0,58,58,19,1,4,9,4 | 9,5,1.4111,1.9756,congruent,right,,,,,,,,,,,,,,,,,,,,,,,,,,,,,,,,,,,,,
,,,,,,,,,,,,,,,764,2022-01-23_20h26.01.160,multiplicationStroop,2021.2.3,Win32,59.23468783,,,,,right,1,0.6962,0,59,59,11,1,7,9,7 | 9,2,1.4111,1.9756,congruent,right,,,,,,,,,,,,,,,,,,,,,,,,,,,,,,,,,,,,,
,,,,,,,,,,,,,,,764,2022-01-23_20h26.01.160,multiplicationStroop,2021.2.3,Win32,59.23468783,,,,,left,1,0.7721,0,60,60,38,1,8,6,8 | 6,2,1.4111,1.9756,incongruent,left,,,,,,,,,,,,,,,,,,,,,,,,,,,,,,,,,,,,,
,,,,,,,,,,,,,,,764,2022-01-23_20h26.01.160,multiplicationStroop,2021.2.3,Win32,59.23468783,,,,,right,1,0.8331,0,61,61,48,1,1,2,1 | 2,1,1.6933,1.6933,neutral,right,,,,,,,,,,,,,,,,,,,,,,,,,,,,,,,,,,,,,
,,,,,,,,,,,,,,,764,2022-01-23_20h26.01.160,multiplicationStroop,2021.2.3,Win32,59.23468783,,,,,right,1,0.6368,0,62,62,56,1,1,3,1 | 3,2,1.6933,1.6933,neutral,right,,,,,,,,,,,,,,,,,,,,,,,,,,,,,,,,,,,,,
,,,,,,,,,,,,,,,764,2022-01-23_20h26.01.160,multiplicationStroop,2021.2.3,Win32,59.23468783,,,,,right,1,0.8315,0,63,63,57,1,2,4,2 | 4,2,1.6933,1.6933,neutral,right,,,,,,,,,,,,,,,,,,,,,,,,,,,,,,,,,,,,,
,,,,,,,,,,,,,,,764,2022-01-23_20h26.01.160,multiplicationStroop,2021.2.3,Win32,59.23468783,,,,,right,1,0.5455,0,64,64,65,1,2,7,2 | 7,5,1.6933,1.6933,neutral,right,,,,,,,,,,,,,,,,,,,,,,,,,,,,,,,,,,,,,
,,,,,,,,,,,,,,,764,2022-01-23_20h26.01.160,multiplicationStroop,2021.2.3,Win32,59.23468783,,,,,right,1,0.5983,0,65,65,3,1,8,9,8 | 9,1,1.4111,1.9756,congruent,right,,,,,,,,,,,,,,,,,,,,,,,,,,,,,,,,,,,,,
,,,,,,,,,,,,,,,764,2022-01-23_20h26.01.160,multiplicationStroop,2021.2.3,Win32,59.23468783,,,,,left,1,0.8269,0,66,66,29,1,4,3,4 | 3,1,1.4111,1.9756,incongruent,left,,,,,,,,,,,,,,,,,,,,,,,,,,,,,,,,,,,,,
,,,,,,,,,,,,,,,764,2022-01-23_20h26.01.160,multiplicationStroop,2021.2.3,Win32,59.23468783,,,,,left,1,0.8292,0,67,67,30,1,7,6,7 | 6,1,1.4111,1.9756,incongruent,left,,,,,,,,,,,,,,,,,,,,,,,,,,,,,,,,,,,,,
,,,,,,,,,,,,,,,764,2022-01-23_20h26.01.160,multiplicationStroop,2021.2.3,Win32,59.23468783,,,,,right,1,0.5808,0,68,68,1,1,3,4,3 | 4,1,1.4111,1.9756,congruent,right,,,,,,,,,,,,,,,,,,,,,,,,,,,,,,,,,,,,,
,,,,,,,,,,,,,,,764,2022-01-23_20h26.01.160,multiplicationStroop,2021.2.3,Win32,59.23468783,,,,,left,1,0.5247,0,69,69,13,1,4,2,4 | 2,2,1.9756,1.4111,congruent,left,,,,,,,,,,,,,,,,,,,,,,,,,,,,,,,,,,,,,
,,,,,,,,,,,,,,,764,2022-01-23_20h26.01.160,multiplicationStroop,2021.2.3,Win32,59.23468783,,,,,left,1,0.5358,0,70,70,14,1,8,6,8 | 6,2,1.9756,1.4111,congruent,left,,,,,,,,,,,,,,,,,,,,,,,,,,,,,,,,,,,,,
,,,,,,,,,,,,,,,764,2022-01-23_20h26.01.160,multiplicationStroop,2021.2.3,Win32,59.23468783,,,,,left,1,0.617,0,71,71,36,1,3,1,3 | 1,2,1.4111,1.9756,incongruent,left,,,,,,,,,,,,,,,,,,,,,,,,,,,,,,,,,,,,,
,,,,,,,,,,,,,,,764,2022-01-23_20h26.01.160,multiplicationStroop,2021.2.3,Win32,59.23468783,,,,,,,,,,,,,,,,,,,,,0,1,1,0,1,stimulusFile/magnitude.xlsx,NUMERICALLY larger (larger coefficient).,images/numericallyLarger.png,,,,,,,,,,,,,,,,,,,,,,,,,,,,,
,,,,,,,,,,,,,,,764,2022-01-23_20h26.01.160,multiplicationStroop,2021.2.3,Win32,59.23468783,,,,,,,,,,,,,,,,,,,,,,,,,,,,,space,21.7195,space,2.3045,20,2.9622,1,0,0,0,20,1,5,×,4,5 × 4,neutral,largerFirst,1.5,1.5,20,,,,,,,,
,,,,,,,,,,,,,,,764,2022-01-23_20h26.01.160,multiplicationStroop,2021.2.3,Win32,59.23468783,,,,,,,,,,,,,,,,,,,,,,,,,,,,,,,,,10,1.9329,1,0,1,1,4,1,2,×,5,2 × 5,neutral,smallerFirst,1.5,1.5,10,,,,,,,,
,,,,,,,,,,,,,,,764,2022-01-23_20h26.01.160,multiplicationStroop,2021.2.3,Win32,59.23468783,,,,,,,,,,,,,,,,,,,,,,,,,,,,,,,,,56,2.7317,1,0,2,2,9,1,7,×,8,7 × 8,neutral,smallerFirst,1.5,1.5,56,,,,,,,,
,,,,,,,,,,,,,,,764,2022-01-23_20h26.01.160,multiplicationStroop,2021.2.3,Win32,59.23468783,,,,,,,,,,,,,,,,,,,,,,,,,,,,,,,,,24,3.0019,1,0,3,3,2,1,4,×,6,4 × 6,neutral,smallerFirst,1.5,1.5,24,,,,,,,,
,,,,,,,,,,,,,,,764,2022-01-23_20h26.01.160,multiplicationStroop,2021.2.3,Win32,59.23468783,,,,,,,,,,,,,,,,,,,,,,,,,,,,,,,,,18,2.0829,1,0,4,4,18,1,9,×,2,9 × 2,neutral,largerFirst,1.5,1.5,18,,,,,,,,
,,,,,,,,,,,,,,,764,2022-01-23_20h26.01.160,multiplicationStroop,2021.2.3,Win32,59.23468783,,,,,,,,,,,,,,,,,,,,,,,,,,,,,,,,,6,1.9324,1,0,5,5,26,1,3,×,2,3 × 2,neutral,largerFirst,1.5,1.5,6,,,,,,,,
,,,,,,,,,,,,,,,764,2022-01-23_20h26.01.160,multiplicationStroop,2021.2.3,Win32,59.23468783,,,,,,,,,,,,,,,,,,,,,,,,,,,,,,,,,4,1.5493,1,0,6,6,28,1,2,×,2,2 × 2,neutral,tie,1.5,1.5,4,,,,,,,,
,,,,,,,,,,,,,,,764,2022-01-23_20h26.01.160,multiplicationStroop,2021.2.3,Win32,59.23468783,,,,,,,,,,,,,,,,,,,,,,,,,,,,,,,,,16,1.8823,1,0,7,7,13,1,2,×,8,2 × 8,neutral,smallerFirst,1.5,1.5,16,,,,,,,,
,,,,,,,,,,,,,,,764,2022-01-23_20h26.01.160,multiplicationStroop,2021.2.3,Win32,59.23468783,,,,,,,,,,,,,,,,,,,,,,,,,,,,,,,,,72,2.6157,1,0,8,8,11,1,8,×,9,8 × 9,neutral,smallerFirst,1.5,1.5,72,,,,,,,,
,,,,,,,,,,,,,,,764,2022-01-23_20h26.01.160,multiplicationStroop,2021.2.3,Win32,59.23468783,,,,,,,,,,,,,,,,,,,,,,,,,,,,,,,,,36,2.8988,1,0,9,9,27,1,9,×,4,9 × 4,neutral,largerFirst,1.5,1.5,36,,,,,,,,
,,,,,,,,,,,,,,,764,2022-01-23_20h26.01.160,multiplicationStroop,2021.2.3,Win32,59.23468783,,,,,,,,,,,,,,,,,,,,,,,,,,,,,,,,,36,1.9358,1,0,10,10,32,1,6,×,6,6 × 6,neutral,tie,1.5,1.5,36,,,,,,,,
,,,,,,,,,,,,,,,764,2022-01-23_20h26.01.160,multiplicationStroop,2021.2.3,Win32,59.23468783,,,,,,,,,,,,,,,,,,,,,,,,,,,,,,,,,12,1.6782,1,0,11,11,25,1,6,×,2,6 × 2,neutral,largerFirst,1.5,1.5,12,,,,,,,,
,,,,,,,,,,,,,,,764,2022-01-23_20h26.01.160,multiplicationStroop,2021.2.3,Win32,59.23468783,,,,,,,,,,,,,,,,,,,,,,,,,,,,,,,,,54,2.149,1,0,12,12,7,1,6,×,9,6 × 9,neutral,smallerFirst,1.5,1.5,54,,,,,,,,
,,,,,,,,,,,,,,,764,2022-01-23_20h26.01.160,multiplicationStroop,2021.2.3,Win32,59.23468783,,,,,,,,,,,,,,,,,,,,,,,,,,,,,,,,,16,1.9654,1,0,13,13,30,1,4,×,4,4 × 4,neutral,tie,1.5,1.5,16,,,,,,,,
,,,,,,,,,,,,,,,764,2022-01-23_20h26.01.160,multiplicationStroop,2021.2.3,Win32,59.23468783,,,,,,,,,,,,,,,,,,,,,,,,,,,,,,,,,25,1.9154,1,0,14,14,31,1,5,×,5,5 × 5,neutral,tie,1.5,1.5,25,,,,,,,,
,,,,,,,,,,,,,,,764,2022-01-23_20h26.01.160,multiplicationStroop,2021.2.3,Win32,59.23468783,,,,,,,,,,,,,,,,,,,,,,,,,,,,,,,,,8,2.0822,1,0,15,15,3,1,2,×,4,2 × 4,neutral,smallerFirst,1.5,1.5,8,,,,,,,,
,,,,,,,,,,,,,,,764,2022-01-23_20h26.01.160,multiplicationStroop,2021.2.3,Win32,59.23468783,,,,,,,,,,,,,,,,,,,,,,,,,,,,,,,,,63,3.2488,1,0,16,16,12,1,7,×,9,7 × 9,neutral,smallerFirst,1.5,1.5,63,,,,,,,,
,,,,,,,,,,,,,,,764,2022-01-23_20h26.01.160,multiplicationStroop,2021.2.3,Win32,59.23468783,,,,,,,,,,,,,,,,,,,,,,,,,,,,,,,,,28,2.9017,1,0,17,17,17,1,7,×,4,7 × 4,neutral,largerFirst,1.5,1.5,28,,,,,,,,
,,,,,,,,,,,,,,,764,2022-01-23_20h26.01.160,multiplicationStroop,2021.2.3,Win32,59.23468783,,,,,,,,,,,,,,,,,,,,,,,,,,,,,,,,,14,1.7657,1,0,18,18,16,1,7,×,2,7 × 2,neutral,largerFirst,1.5,1.5,14,,,,,,,,
,,,,,,,,,,,,,,,764,2022-01-23_20h26.01.160,multiplicationStroop,2021.2.3,Win32,59.23468783,,,,,,,,,,,,,,,,,,,,,,,,,,,,,,,,,45,2.5825,1,0,19,19,10,1,5,×,9,5 × 9,neutral,smallerFirst,1.5,1.5,45,,,,,,,,
,,,,,,,,,,,,,,,764,2022-01-23_20h26.01.160,multiplicationStroop,2021.2.3,Win32,59.23468783,,,,,,,,,,,,,,,,,,,,,,,,,,,,,,,,,40,2.2839,1,0,20,20,24,1,8,×,5,8 × 5,neutral,largerFirst,1.5,1.5,40,,,,,,,,
,,,,,,,,,,,,,,,764,2022-01-23_20h26.01.160,multiplicationStroop,2021.2.3,Win32,59.23468783,,,,,,,,,,,,,,,,,,,,,,,,,,,,,,,,,81,2.6492,1,0,21,21,35,1,9,×,9,9 × 9,neutral,tie,1.5,1.5,81,,,,,,,,
,,,,,,,,,,,,,,,764,2022-01-23_20h26.01.160,multiplicationStroop,2021.2.3,Win32,59.23468783,,,,,,,,,,,,,,,,,,,,,,,,,,,,,,,,,49,2.2821,1,0,22,22,33,1,7,×,7,7 × 7,neutral,tie,1.5,1.5,49,,,,,,,,
,,,,,,,,,,,,,,,764,2022-01-23_20h26.01.160,multiplicationStroop,2021.2.3,Win32,59.23468783,,,,,,,,,,,,,,,,,,,,,,,,,,,,,,,,,18,2.9484,1,0,23,23,0,1,3,×,6,3 × 6,neutral,smallerFirst,1.5,1.5,18,,,,,,,,
,,,,,,,,,,,,,,,764,2022-01-23_20h26.01.160,multiplicationStroop,2021.2.3,Win32,59.23468783,,,,,,,,,,,,,,,,,,,,,,,,,,,,,,,,,64,2.8351,1,0,24,24,34,1,8,×,8,8 × 8,neutral,tie,1.5,1.5,64,,,,,,,,
,,,,,,,,,,,,,,,764,2022-01-23_20h26.01.160,multiplicationStroop,2021.2.3,Win32,59.23468783,,,,,,,,,,,,,,,,,,,,,,,,,,,,,,,,,24,2.5822,1,0,25,25,22,1,8,×,3,8 × 3,neutral,largerFirst,1.5,1.5,24,,,,,,,,
,,,,,,,,,,,,,,,764,2022-01-23_20h26.01.160,multiplicationStroop,2021.2.3,Win32,59.23468783,,,,,,,,,,,,,,,,,,,,,,,,,,,,,,,,,35,2.1992,1,0,26,26,1,1,5,×,7,5 × 7,neutral,smallerFirst,1.5,1.5,35,,,,,,,,
,,,,,,,,,,,,,,,764,2022-01-23_20h26.01.160,multiplicationStroop,2021.2.3,Win32,59.23468783,,,,,,,,,,,,,,,,,,,,,,,,,,,,,,,,,27,2.0156,1,0,27,27,14,1,9,×,3,9 × 3,neutral,largerFirst,1.5,1.5,27,,,,,,,,
,,,,,,,,,,,,,,,764,2022-01-23_20h26.01.160,multiplicationStroop,2021.2.3,Win32,59.23468783,,,,,,,,,,,,,,,,,,,,,,,,,,,,,,,,,21,1.7652,1,0,28,28,8,1,3,×,7,3 × 7,neutral,smallerFirst,1.5,1.5,21,,,,,,,,
,,,,,,,,,,,,,,,764,2022-01-23_20h26.01.160,multiplicationStroop,2021.2.3,Win32,59.23468783,,,,,,,,,,,,,,,,,,,,,,,,,,,,,,,,,15,2.0828,1,0,29,29,5,1,3,×,5,3 × 5,neutral,smallerFirst,1.5,1.5,15,,,,,,,,
,,,,,,,,,,,,,,,764,2022-01-23_20h26.01.160,multiplicationStroop,2021.2.3,Win32,59.23468783,,,,,,,,,,,,,,,,,,,,,,,,,,,,,,,,,9,1.6821,1,0,30,30,29,1,3,×,3,3 × 3,neutral,tie,1.5,1.5,9,,,,,,,,
,,,,,,,,,,,,,,,764,2022-01-23_20h26.01.160,multiplicationStroop,2021.2.3,Win32,59.23468783,,,,,,,,,,,,,,,,,,,,,,,,,,,,,,,,,30,2.3149,1,0,31,31,19,1,6,×,5,6 × 5,neutral,largerFirst,1.5,1.5,30,,,,,,,,
,,,,,,,,,,,,,,,764,2022-01-23_20h26.01.160,multiplicationStroop,2021.2.3,Win32,59.23468783,,,,,,,,,,,,,,,,,,,,,,,,,,,,,,,,,48,2.6158,1,0,32,32,15,1,8,×,6,8 × 6,neutral,largerFirst,1.5,1.5,48,,,,,,,,
,,,,,,,,,,,,,,,764,2022-01-23_20h26.01.160,multiplicationStroop,2021.2.3,Win32,59.23468783,,,,,,,,,,,,,,,,,,,,,,,,,,,,,,,,,32,2.7512,1,0,33,33,23,1,8,×,4,8 × 4,neutral,largerFirst,1.5,1.5,32,,,,,,,,
,,,,,,,,,,,,,,,764,2022-01-23_20h26.01.160,multiplicationStroop,2021.2.3,Win32,59.23468783,,,,,,,,,,,,,,,,,,,,,,,,,,,,,,,,,12,1.6322,1,0,34,34,21,1,4,×,3,4 × 3,neutral,largerFirst,1.5,1.5,12,,,,,,,,
,,,,,,,,,,,,,,,764,2022-01-23_20h26.01.160,multiplicationStroop,2021.2.3,Win32,59.23468783,,,,,,,,,,,,,,,,,,,,,,,,,,,,,,,,,42,2.6157,1,0,35,35,6,1,6,×,7,6 × 7,neutral,smallerFirst,1.5,1.5,42,,,,,,,,
,,,,,,,,,,,,,,,764,2022-01-23_20h26.01.160,multiplicationStroop,2021.2.3,Win32,59.23468783,,,,,,,,,,,,,,,,,,,,,,,,,,,,,,,,,,,,,,,,,,,,,,,,,,0,0,0,1,1,stimulusFile/mult_blk2.xlsx,,
,,,,,,,,,,,,,,,764,2022-01-23_20h26.01.160,multiplicationStroop,2021.2.3,Win32,59.23468783,,,,,,,,,,,,,,,,,,,,,,,,,,,,,,,space,1.2949,81,2.0255,1,0,0,0,35,1,9,×,9,9 × 9,neutral,tie,2,1,81,,,,,,,,
,,,,,,,,,,,,,,,764,2022-01-23_20h26.01.160,multiplicationStroop,2021.2.3,Win32,59.23468783,,,,,,,,,,,,,,,,,,,,,,,,,,,,,,,,,15,2.0651,1,0,1,1,24,1,5,×,3,5 × 3,incongruent,largerFirst,1,2,15,,,,,,,,
,,,,,,,,,,,,,,,764,2022-01-23_20h26.01.160,multiplicationStroop,2021.2.3,Win32,59.23468783,,,,,,,,,,,,,,,,,,,,,,,,,,,,,,,,,12,1.5325,1,0,2,2,19,1,4,×,3,4 × 3,incongruent,largerFirst,1,2,12,,,,,,,,
,,,,,,,,,,,,,,,764,2022-01-23_20h26.01.160,multiplicationStroop,2021.2.3,Win32,59.23468783,,,,,,,,,,,,,,,,,,,,,,,,,,,,,,,,,24,1.6992,1,0,3,3,23,1,8,×,3,8 × 3,incongruent,largerFirst,1,2,24,,,,,,,,
,,,,,,,,,,,,,,,764,2022-01-23_20h26.01.160,multiplicationStroop,2021.2.3,Win32,59.23468783,,,,,,,,,,,,,,,,,,,,,,,,,,,,,,,,,56,2.3328,1,0,4,4,0,1,7,×,8,7 × 8,incongruent,smallerFirst,2,1,56,,,,,,,,
,,,,,,,,,,,,,,,764,2022-01-23_20h26.01.160,multiplicationStroop,2021.2.3,Win32,59.23468783,,,,,,,,,,,,,,,,,,,,,,,,,,,,,,,,,25,1.9493,1,0,5,5,31,1,5,×,5,5 × 5,neutral,tie,2,1,25,,,,,,,,
,,,,,,,,,,,,,,,764,2022-01-23_20h26.01.160,multiplicationStroop,2021.2.3,Win32,59.23468783,,,,,,,,,,,,,,,,,,,,,,,,,,,,,,,,,42,2.0161,1,0,6,6,3,1,6,×,7,6 × 7,incongruent,smallerFirst,2,1,42,,,,,,,,
,,,,,,,,,,,,,,,764,2022-01-23_20h26.01.160,multiplicationStroop,2021.2.3,Win32,59.23468783,,,,,,,,,,,,,,,,,,,,,,,,,,,,,,,,,20,1.8152,1,0,7,7,13,1,4,×,5,4 × 5,incongruent,smallerFirst,2,1,20,,,,,,,,
,,,,,,,,,,,,,,,764,2022-01-23_20h26.01.160,multiplicationStroop,2021.2.3,Win32,59.23468783,,,,,,,,,,,,,,,,,,,,,,,,,,,,,,,,,32,2.0327,1,0,8,8,21,1,8,×,4,8 × 4,incongruent,largerFirst,1,2,32,,,,,,,,
,,,,,,,,,,,,,,,764,2022-01-23_20h26.01.160,multiplicationStroop,2021.2.3,Win32,59.23468783,,,,,,,,,,,,,,,,,,,,,,,,,,,,,,,,,21,1.8159,1,0,9,9,12,1,3,×,7,3 × 7,incongruent,smallerFirst,2,1,21,,,,,,,,
,,,,,,,,,,,,,,,764,2022-01-23_20h26.01.160,multiplicationStroop,2021.2.3,Win32,59.23468783,,,,,,,,,,,,,,,,,,,,,,,,,,,,,,,,,18,2.0327,1,0,10,10,22,1,6,×,3,6 × 3,incongruent,largerFirst,1,2,18,,,,,,,,
,,,,,,,,,,,,,,,764,2022-01-23_20h26.01.160,multiplicationStroop,2021.2.3,Win32,59.23468783,,,,,,,,,,,,,,,,,,,,,,,,,,,,,,,,,24,2.3657,1,0,11,11,6,1,4,×,6,4 × 6,incongruent,smallerFirst,2,1,24,,,,,,,,
,,,,,,,,,,,,,,,764,2022-01-23_20h26.01.160,multiplicationStroop,2021.2.3,Win32,59.23468783,,,,,,,,,,,,,,,,,,,,,,,,,,,,,,,,,30,2.335,1,0,12,12,11,1,5,×,6,5 × 6,incongruent,smallerFirst,2,1,30,,,,,,,,
,,,,,,,,,,,,,,,764,2022-01-23_20h26.01.160,multiplicationStroop,2021.2.3,Win32,59.23468783,,,,,,,,,,,,,,,,,,,,,,,,,,,,,,,,,6,2.3159,1,0,13,13,25,1,3,×,2,3 × 2,incongruent,largerFirst,1,2,6,,,,,,,,
,,,,,,,,,,,,,,,764,2022-01-23_20h26.01.160,multiplicationStroop,2021.2.3,Win32,59.23468783,,,,,,,,,,,,,,,,,,,,,,,,,,,,,,,,,16,2.0827,1,0,14,14,9,1,2,×,8,2 × 8,incongruent,smallerFirst,2,1,16,,,,,,,,
,,,,,,,,,,,,,,,764,2022-01-23_20h26.01.160,multiplicationStroop,2021.2.3,Win32,59.23468783,,,,,,,,,,,,,,,,,,,,,,,,,,,,,,,,,16,1.8491,1,0,15,15,30,1,4,×,4,4 × 4,neutral,tie,2,1,16,,,,,,,,
,,,,,,,,,,,,,,,764,2022-01-23_20h26.01.160,multiplicationStroop,2021.2.3,Win32,59.23468783,,,,,,,,,,,,,,,,,,,,,,,,,,,,,,,,,40,2.1996,1,0,16,16,27,1,8,×,5,8 × 5,incongruent,largerFirst,1,2,40,,,,,,,,
,,,,,,,,,,,,,,,764,2022-01-23_20h26.01.160,multiplicationStroop,2021.2.3,Win32,59.23468783,,,,,,,,,,,,,,,,,,,,,,,,,,,,,,,,,36,2.4823,1,0,17,17,1,1,4,×,9,4 × 9,incongruent,smallerFirst,2,1,36,,,,,,,,
,,,,,,,,,,,,,,,764,2022-01-23_20h26.01.160,multiplicationStroop,2021.2.3,Win32,59.23468783,,,,,,,,,,,,,,,,,,,,,,,,,,,,,,,,,18,1.7827,1,0,18,18,16,1,9,×,2,9 × 2,incongruent,largerFirst,1,2,18,,,,,,,,
,,,,,,,,,,,,,,,764,2022-01-23_20h26.01.160,multiplicationStroop,2021.2.3,Win32,59.23468783,,,,,,,,,,,,,,,,,,,,,,,,,,,,,,,,,63,2.6322,1,0,19,19,17,1,9,×,7,9 × 7,incongruent,largerFirst,1,2,63,,,,,,,,
,,,,,,,,,,,,,,,764,2022-01-23_20h26.01.160,multiplicationStroop,2021.2.3,Win32,59.23468783,,,,,,,,,,,,,,,,,,,,,,,,,,,,,,,,,8,1.7357,1,0,20,20,10,1,2,×,4,2 × 4,incongruent,smallerFirst,2,1,8,,,,,,,,
,,,,,,,,,,,,,,,764,2022-01-23_20h26.01.160,multiplicationStroop,2021.2.3,Win32,59.23468783,,,,,,,,,,,,,,,,,,,,,,,,,,,,,,,,,49,2.799,1,0,21,21,33,1,7,×,7,7 × 7,neutral,tie,2,1,49,,,,,,,,
,,,,,,,,,,,,,,,764,2022-01-23_20h26.01.160,multiplicationStroop,2021.2.3,Win32,59.23468783,,,,,,,,,,,,,,,,,,,,,,,,,,,,,,,,,35,2.3852,1,0,22,22,26,1,7,×,5,7 × 5,incongruent,largerFirst,1,2,35,,,,,,,,
,,,,,,,,,,,,,,,764,2022-01-23_20h26.01.160,multiplicationStroop,2021.2.3,Win32,59.23468783,,,,,,,,,,,,,,,,,,,,,,,,,,,,,,,,,9,1.7657,1,0,23,23,29,1,3,×,3,3 × 3,neutral,tie,2,1,9,,,,,,,,
,,,,,,,,,,,,,,,764,2022-01-23_20h26.01.160,multiplicationStroop,2021.2.3,Win32,59.23468783,,,,,,,,,,,,,,,,,,,,,,,,,,,,,,,,,45,2.5328,1,0,24,24,8,1,5,×,9,5 × 9,incongruent,smallerFirst,2,1,45,,,,,,,,
,,,,,,,,,,,,,,,764,2022-01-23_20h26.01.160,multiplicationStroop,2021.2.3,Win32,59.23468783,,,,,,,,,,,,,,,,,,,,,,,,,,,,,,,,,14,1.6822,1,0,25,25,18,1,7,×,2,7 × 2,incongruent,largerFirst,1,2,14,,,,,,,,
,,,,,,,,,,,,,,,764,2022-01-23_20h26.01.160,multiplicationStroop,2021.2.3,Win32,59.23468783,,,,,,,,,,,,,,,,,,,,,,,,,,,,,,,,,64,1.9993,1,0,26,26,34,1,8,×,8,8 × 8,neutral,tie,2,1,64,,,,,,,,
,,,,,,,,,,,,,,,764,2022-01-23_20h26.01.160,multiplicationStroop,2021.2.3,Win32,59.23468783,,,,,,,,,,,,,,,,,,,,,,,,,,,,,,,,,36,2.7825,1,0,27,27,32,1,6,×,6,6 × 6,neutral,tie,2,1,36,,,,,,,,
,,,,,,,,,,,,,,,764,2022-01-23_20h26.01.160,multiplicationStroop,2021.2.3,Win32,59.23468783,,,,,,,,,,,,,,,,,,,,,,,,,,,,,,,,,10,1.9826,1,0,28,28,7,1,2,×,5,2 × 5,incongruent,smallerFirst,2,1,10,,,,,,,,
,,,,,,,,,,,,,,,764,2022-01-23_20h26.01.160,multiplicationStroop,2021.2.3,Win32,59.23468783,,,,,,,,,,,,,,,,,,,,,,,,,,,,,,,,,28,2.5659,1,0,29,29,2,1,4,×,7,4 × 7,incongruent,smallerFirst,2,1,28,,,,,,,,
,,,,,,,,,,,,,,,764,2022-01-23_20h26.01.160,multiplicationStroop,2021.2.3,Win32,59.23468783,,,,,,,,,,,,,,,,,,,,,,,,,,,,,,,,,48,3.0344,1,0,30,30,15,1,8,×,6,8 × 6,incongruent,largerFirst,1,2,48,,,,,,,,
,,,,,,,,,,,,,,,764,2022-01-23_20h26.01.160,multiplicationStroop,2021.2.3,Win32,59.23468783,,,,,,,,,,,,,,,,,,,,,,,,,,,,,,,,,4,1.3831,1,0,31,31,28,1,2,×,2,2 × 2,neutral,tie,2,1,4,,,,,,,,
,,,,,,,,,,,,,,,764,2022-01-23_20h26.01.160,multiplicationStroop,2021.2.3,Win32,59.23468783,,,,,,,,,,,,,,,,,,,,,,,,,,,,,,,,,12,1.6822,1,0,32,32,5,1,2,×,6,2 × 6,incongruent,smallerFirst,2,1,12,,,,,,,,
,,,,,,,,,,,,,,,764,2022-01-23_20h26.01.160,multiplicationStroop,2021.2.3,Win32,59.23468783,,,,,,,,,,,,,,,,,,,,,,,,,,,,,,,,,54,4.4151,1,0,33,33,20,1,9,×,6,9 × 6,incongruent,largerFirst,1,2,54,,,,,,,,
,,,,,,,,,,,,,,,764,2022-01-23_20h26.01.160,multiplicationStroop,2021.2.3,Win32,59.23468783,,,,,,,,,,,,,,,,,,,,,,,,,,,,,,,,,27,2.9522,1,0,34,34,4,1,3,×,9,3 × 9,incongruent,smallerFirst,2,1,27,,,,,,,,
,,,,,,,,,,,,,,,764,2022-01-23_20h26.01.160,multiplicationStroop,2021.2.3,Win32,59.23468783,,,,,,,,,,,,,,,,,,,,,,,,,,,,,,,,,72,2.3319,1,0,35,35,14,1,9,×,8,9 × 8,incongruent,largerFirst,1,2,72,,,,,,,,
,,,,,,,,,,,,,,,764,2022-01-23_20h26.01.160,multiplicationStroop,2021.2.3,Win32,59.23468783,,,,,,,,,,,,,,,,,,,,,,,,,,,,,,,,,,,,,,,,,,,,,,,,,,0,1,1,4,1,stimulusFile/mult_blk5_INcongruent.xlsx,,
,,,,,,,,,,,,,,,764,2022-01-23_20h26.01.160,multiplicationStroop,2021.2.3,Win32,59.23468783,,,,,,,,,,,,,,,,,,,,,,,,,,,,,,,space,0.9343,30,1.9502,1,0,0,0,25,1,6,×,5,6 × 5,incongruent,largerFirst,1,2,30,,,,,,,,
,,,,,,,,,,,,,,,764,2022-01-23_20h26.01.160,multiplicationStroop,2021.2.3,Win32,59.23468783,,,,,,,,,,,,,,,,,,,,,,,,,,,,,,,,,16,2.0992,1,0,1,1,23,1,8,×,2,8 × 2,incongruent,largerFirst,1,2,16,,,,,,,,
,,,,,,,,,,,,,,,764,2022-01-23_20h26.01.160,multiplicationStroop,2021.2.3,Win32,59.23468783,,,,,,,,,,,,,,,,,,,,,,,,,,,,,,,,,49,1.9994,1,0,2,2,33,1,7,×,7,7 × 7,incongruent,tie,1,2,49,,,,,,,,
,,,,,,,,,,,,,,,764,2022-01-23_20h26.01.160,multiplicationStroop,2021.2.3,Win32,59.23468783,,,,,,,,,,,,,,,,,,,,,,,,,,,,,,,,,45,1.833,1,0,3,3,22,1,9,×,5,9 × 5,incongruent,largerFirst,1,2,45,,,,,,,,
,,,,,,,,,,,,,,,764,2022-01-23_20h26.01.160,multiplicationStroop,2021.2.3,Win32,59.23468783,,,,,,,,,,,,,,,,,,,,,,,,,,,,,,,,,63,2.4322,1,0,4,4,3,1,7,×,9,7 × 9,incongruent,smallerFirst,2,1,63,,,,,,,,
,,,,,,,,,,,,,,,764,2022-01-23_20h26.01.160,multiplicationStroop,2021.2.3,Win32,59.23468783,,,,,,,,,,,,,,,,,,,,,,,,,,,,,,,,,18,3.9323,1,0,5,5,8,1,3,×,6,3 × 6,incongruent,smallerFirst,2,1,18,,,,,,,,
,,,,,,,,,,,,,,,764,2022-01-23_20h26.01.160,multiplicationStroop,2021.2.3,Win32,59.23468783,,,,,,,,,,,,,,,,,,,,,,,,,,,,,,,,,24,2.2852,1,0,6,6,20,1,6,×,4,6 × 4,incongruent,largerFirst,1,2,24,,,,,,,,
,,,,,,,,,,,,,,,764,2022-01-23_20h26.01.160,multiplicationStroop,2021.2.3,Win32,59.23468783,,,,,,,,,,,,,,,,,,,,,,,,,,,,,,,,,12,1.9329,1,0,7,7,5,1,3,×,4,3 × 4,incongruent,smallerFirst,2,1,12,,,,,,,,
,,,,,,,,,,,,,,,764,2022-01-23_20h26.01.160,multiplicationStroop,2021.2.3,Win32,59.23468783,,,,,,,,,,,,,,,,,,,,,,,,,,,,,,,,,81,1.766,1,0,8,8,35,1,9,×,9,9 × 9,incongruent,tie,1,2,81,,,,,,,,
,,,,,,,,,,,,,,,764,2022-01-23_20h26.01.160,multiplicationStroop,2021.2.3,Win32,59.23468783,,,,,,,,,,,,,,,,,,,,,,,,,,,,,,,,,18,1.9652,1,0,9,9,2,1,2,×,9,2 × 9,incongruent,smallerFirst,2,1,18,,,,,,,,
,,,,,,,,,,,,,,,764,2022-01-23_20h26.01.160,multiplicationStroop,2021.2.3,Win32,59.23468783,,,,,,,,,,,,,,,,,,,,,,,,,,,,,,,,,24,3.6159,1,0,10,10,9,1,3,×,8,3 × 8,incongruent,smallerFirst,2,1,24,,,,,,,,
,,,,,,,,,,,,,,,764,2022-01-23_20h26.01.160,multiplicationStroop,2021.2.3,Win32,59.23468783,,,,,,,,,,,,,,,,,,,,,,,,,,,,,,,,,40,2.5687,1,0,11,11,13,1,5,×,8,5 × 8,incongruent,smallerFirst,2,1,40,,,,,,,,
,,,,,,,,,,,,,,,764,2022-01-23_20h26.01.160,multiplicationStroop,2021.2.3,Win32,59.23468783,,,,,,,,,,,,,,,,,,,,,,,,,,,,,,,,,72,3.0323,1,0,12,12,0,1,8,×,9,8 × 9,incongruent,smallerFirst,2,1,72,,,,,,,,
,,,,,,,,,,,,,,,764,2022-01-23_20h26.01.160,multiplicationStroop,2021.2.3,Win32,59.23468783,,,,,,,,,,,,,,,,,,,,,,,,,,,,,,,,,35,2.3014,1,0,13,13,12,1,5,×,7,5 × 7,incongruent,smallerFirst,2,1,35,,,,,,,,
,,,,,,,,,,,,,,,764,2022-01-23_20h26.01.160,multiplicationStroop,2021.2.3,Win32,59.23468783,,,,,,,,,,,,,,,,,,,,,,,,,,,,,,,,,10,2.266,1,0,14,14,21,1,5,×,2,5 × 2,incongruent,largerFirst,1,2,10,,,,,,,,
,,,,,,,,,,,,,,,764,2022-01-23_20h26.01.160,multiplicationStroop,2021.2.3,Win32,59.23468783,,,,,,,,,,,,,,,,,,,,,,,,,,,,,,,,,14,2.6496,1,0,15,15,4,1,2,×,7,2 × 7,incongruent,smallerFirst,2,1,14,,,,,,,,
,,,,,,,,,,,,,,,764,2022-01-23_20h26.01.160,multiplicationStroop,2021.2.3,Win32,59.23468783,,,,,,,,,,,,,,,,,,,,,,,,,,,,,,,,,36,2.2657,1,0,16,16,15,1,9,×,4,9 × 4,incongruent,largerFirst,1,2,36,,,,,,,,
,,,,,,,,,,,,,,,764,2022-01-23_20h26.01.160,multiplicationStroop,2021.2.3,Win32,59.23468783,,,,,,,,,,,,,,,,,,,,,,,,,,,,,,,,,42,2.3825,1,0,17,17,17,1,7,×,6,7 × 6,incongruent,largerFirst,1,2,42,,,,,,,,
,,,,,,,,,,,,,,,764,2022-01-23_20h26.01.160,multiplicationStroop,2021.2.3,Win32,59.23468783,,,,,,,,,,,,,,,,,,,,,,,,,,,,,,,,,9,1.7169,1,0,18,18,29,1,3,×,3,3 × 3,incongruent,tie,1,2,9,,,,,,,,
,,,,,,,,,,,,,,,764,2022-01-23_20h26.01.160,multiplicationStroop,2021.2.3,Win32,59.23468783,,,,,,,,,,,,,,,,,,,,,,,,,,,,,,,,,32,2.449,1,0,19,19,7,1,4,×,8,4 × 8,incongruent,smallerFirst,2,1,32,,,,,,,,
,,,,,,,,,,,,,,,764,2022-01-23_20h26.01.160,multiplicationStroop,2021.2.3,Win32,59.23468783,,,,,,,,,,,,,,,,,,,,,,,,,,,,,,,,,6,3.0489,1,0,20,20,11,1,2,×,3,2 × 3,incongruent,smallerFirst,2,1,6,,,,,,,,
,,,,,,,,,,,,,,,764,2022-01-23_20h26.01.160,multiplicationStroop,2021.2.3,Win32,59.23468783,,,,,,,,,,,,,,,,,,,,,,,,,,,,,,,,,56,2.5994,1,0,21,21,14,1,8,×,7,8 × 7,incongruent,largerFirst,1,2,56,,,,,,,,
,,,,,,,,,,,,,,,764,2022-01-23_20h26.01.160,multiplicationStroop,2021.2.3,Win32,59.23468783,,,,,,,,,,,,,,,,,,,,,,,,,,,,,,,,,8,2.2016,1,0,22,22,24,1,4,×,2,4 × 2,incongruent,largerFirst,1,2,8,,,,,,,,
,,,,,,,,,,,,,,,764,2022-01-23_20h26.01.160,multiplicationStroop,2021.2.3,Win32,59.23468783,,,,,,,,,,,,,,,,,,,,,,,,,,,,,,,,,4,1.8329,1,0,23,23,28,1,2,×,2,2 × 2,incongruent,tie,1,2,4,,,,,,,,
,,,,,,,,,,,,,,,764,2022-01-23_20h26.01.160,multiplicationStroop,2021.2.3,Win32,59.23468783,,,,,,,,,,,,,,,,,,,,,,,,,,,,,,,,,25,1.7988,1,0,24,24,31,1,5,×,5,5 × 5,incongruent,tie,1,2,25,,,,,,,,
,,,,,,,,,,,,,,,764,2022-01-23_20h26.01.160,multiplicationStroop,2021.2.3,Win32,59.23468783,,,,,,,,,,,,,,,,,,,,,,,,,,,,,,,,,20,2.4327,1,0,25,25,27,1,5,×,4,5 × 4,incongruent,largerFirst,1,2,20,,,,,,,,
,,,,,,,,,,,,,,,764,2022-01-23_20h26.01.160,multiplicationStroop,2021.2.3,Win32,59.23468783,,,,,,,,,,,,,,,,,,,,,,,,,,,,,,,,,21,1.5681,1,0,26,26,26,1,7,×,3,7 × 3,incongruent,largerFirst,1,2,21,,,,,,,,
,,,,,,,,,,,,,,,764,2022-01-23_20h26.01.160,multiplicationStroop,2021.2.3,Win32,59.23468783,,,,,,,,,,,,,,,,,,,,,,,,,,,,,,,,,15,1.8329,1,0,27,27,10,1,3,×,5,3 × 5,incongruent,smallerFirst,2,1,15,,,,,,,,
,,,,,,,,,,,,,,,764,2022-01-23_20h26.01.160,multiplicationStroop,2021.2.3,Win32,59.23468783,,,,,,,,,,,,,,,,,,,,,,,,,,,,,,,,,54,2.5491,1,0,28,28,6,1,6,×,9,6 × 9,incongruent,smallerFirst,2,1,54,,,,,,,,
,,,,,,,,,,,,,,,764,2022-01-23_20h26.01.160,multiplicationStroop,2021.2.3,Win32,59.23468783,,,,,,,,,,,,,,,,,,,,,,,,,,,,,,,,,28,2.6515,1,0,29,29,16,1,7,×,4,7 × 4,incongruent,largerFirst,1,2,28,,,,,,,,
,,,,,,,,,,,,,,,764,2022-01-23_20h26.01.160,multiplicationStroop,2021.2.3,Win32,59.23468783,,,,,,,,,,,,,,,,,,,,,,,,,,,,,,,,,36,2.0663,1,0,30,30,32,1,6,×,6,6 × 6,incongruent,tie,1,2,36,,,,,,,,
,,,,,,,,,,,,,,,764,2022-01-23_20h26.01.160,multiplicationStroop,2021.2.3,Win32,59.23468783,,,,,,,,,,,,,,,,,,,,,,,,,,,,,,,,,16,2.5155,1,0,31,31,30,1,4,×,4,4 × 4,incongruent,tie,1,2,16,,,,,,,,
,,,,,,,,,,,,,,,764,2022-01-23_20h26.01.160,multiplicationStroop,2021.2.3,Win32,59.23468783,,,,,,,,,,,,,,,,,,,,,,,,,,,,,,,,,64,2.366,1,0,32,32,34,1,8,×,8,8 × 8,incongruent,tie,1,2,64,,,,,,,,
,,,,,,,,,,,,,,,764,2022-01-23_20h26.01.160,multiplicationStroop,2021.2.3,Win32,59.23468783,,,,,,,,,,,,,,,,,,,,,,,,,,,,,,,,,48,2.1826,1,0,33,33,1,1,6,×,8,6 × 8,incongruent,smallerFirst,2,1,48,,,,,,,,
,,,,,,,,,,,,,,,764,2022-01-23_20h26.01.160,multiplicationStroop,2021.2.3,Win32,59.23468783,,,,,,,,,,,,,,,,,,,,,,,,,,,,,,,,,12,1.6853,1,0,34,34,19,1,6,×,2,6 × 2,incongruent,largerFirst,1,2,12,,,,,,,,
,,,,,,,,,,,,,,,764,2022-01-23_20h26.01.160,multiplicationStroop,2021.2.3,Win32,59.23468783,,,,,,,,,,,,,,,,,,,,,,,,,,,,,,,,,27,2.2159,1,0,35,35,18,1,9,×,3,9 × 3,incongruent,largerFirst,1,2,27,,,,,,,,
,,,,,,,,,,,,,,,764,2022-01-23_20h26.01.160,multiplicationStroop,2021.2.3,Win32,59.23468783,,,,,,,,,,,,,,,,,,,,,,,,,,,,,,,,,,,,,,,,,,,,,,,,,,0,2,2,5,1,stimulusFile/mult_blk6_INcongruent.xlsx,,
,,,,,,,,,,,,,,,764,2022-01-23_20h26.01.160,multiplicationStroop,2021.2.3,Win32,59.23468783,,,,,,,,,,,,,,,,,,,,,,,,,,,,,,,space,0.9644,42,2.6454,1,0,0,0,3,1,6,×,7,6 × 7,congruent,smallerFirst,1,2,42,,,,,,,,
,,,,,,,,,,,,,,,764,2022-01-23_20h26.01.160,multiplicationStroop,2021.2.3,Win32,59.23468783,,,,,,,,,,,,,,,,,,,,,,,,,,,,,,,,,64,2.0825,1,0,1,1,34,1,8,×,8,8 × 8,neutral,tie,2,1,64,,,,,,,,
,,,,,,,,,,,,,,,764,2022-01-23_20h26.01.160,multiplicationStroop,2021.2.3,Win32,59.23468783,,,,,,,,,,,,,,,,,,,,,,,,,,,,,,,,,24,2.5322,1,0,2,2,10,1,3,×,8,3 × 8,congruent,smallerFirst,1,2,24,,,,,,,,
,,,,,,,,,,,,,,,764,2022-01-23_20h26.01.160,multiplicationStroop,2021.2.3,Win32,59.23468783,,,,,,,,,,,,,,,,,,,,,,,,,,,,,,,,,72,2.4524,1,0,3,3,17,1,9,×,8,9 × 8,congruent,largerFirst,2,1,72,,,,,,,,
,,,,,,,,,,,,,,,764,2022-01-23_20h26.01.160,multiplicationStroop,2021.2.3,Win32,59.23468783,,,,,,,,,,,,,,,,,,,,,,,,,,,,,,,,,32,2.4992,1,0,4,4,20,1,8,×,4,8 × 4,congruent,largerFirst,2,1,32,,,,,,,,
,,,,,,,,,,,,,,,764,2022-01-23_20h26.01.160,multiplicationStroop,2021.2.3,Win32,59.23468783,,,,,,,,,,,,,,,,,,,,,,,,,,,,,,,,,6,1.8325,1,0,5,5,13,1,2,×,3,2 × 3,congruent,smallerFirst,1,2,6,,,,,,,,
,,,,,,,,,,,,,,,764,2022-01-23_20h26.01.160,multiplicationStroop,2021.2.3,Win32,59.23468783,,,,,,,,,,,,,,,,,,,,,,,,,,,,,,,,,36,2.6991,1,0,6,6,0,1,4,×,9,4 × 9,congruent,smallerFirst,1,2,36,,,,,,,,
,,,,,,,,,,,,,,,764,2022-01-23_20h26.01.160,multiplicationStroop,2021.2.3,Win32,59.23468783,,,,,,,,,,,,,,,,,,,,,,,,,,,,,,,,,40,2.2156,1,0,7,7,6,1,5,×,8,5 × 8,congruent,smallerFirst,1,2,40,,,,,,,,
,,,,,,,,,,,,,,,764,2022-01-23_20h26.01.160,multiplicationStroop,2021.2.3,Win32,59.23468783,,,,,,,,,,,,,,,,,,,,,,,,,,,,,,,,,14,2.5654,1,0,8,8,14,1,7,×,2,7 × 2,congruent,largerFirst,2,1,14,,,,,,,,
,,,,,,,,,,,,,,,764,2022-01-23_20h26.01.160,multiplicationStroop,2021.2.3,Win32,59.23468783,,,,,,,,,,,,,,,,,,,,,,,,,,,,,,,,,16,1.8521,1,0,9,9,30,1,4,×,4,4 × 4,neutral,tie,2,1,16,,,,,,,,
,,,,,,,,,,,,,,,764,2022-01-23_20h26.01.160,multiplicationStroop,2021.2.3,Win32,59.23468783,,,,,,,,,,,,,,,,,,,,,,,,,,,,,,,,,25,2.1491,1,0,10,10,31,1,5,×,5,5 × 5,neutral,tie,2,1,25,,,,,,,,
,,,,,,,,,,,,,,,764,2022-01-23_20h26.01.160,multiplicationStroop,2021.2.3,Win32,59.23468783,,,,,,,,,,,,,,,,,,,,,,,,,,,,,,,,,18,2.9163,1,0,11,11,11,1,3,×,6,3 × 6,congruent,smallerFirst,1,2,18,,,,,,,,
,,,,,,,,,,,,,,,764,2022-01-23_20h26.01.160,multiplicationStroop,2021.2.3,Win32,59.23468783,,,,,,,,,,,,,,,,,,,,,,,,,,,,,,,,,24,1.7821,1,0,12,12,25,1,6,×,4,6 × 4,congruent,largerFirst,2,1,24,,,,,,,,
,,,,,,,,,,,,,,,764,2022-01-23_20h26.01.160,multiplicationStroop,2021.2.3,Win32,59.23468783,,,,,,,,,,,,,,,,,,,,,,,,,,,,,,,,,28,2.0825,1,0,13,13,27,1,7,×,4,7 × 4,congruent,largerFirst,2,1,28,,,,,,,,
,,,,,,,,,,,,,,,764,2022-01-23_20h26.01.160,multiplicationStroop,2021.2.3,Win32,59.23468783,,,,,,,,,,,,,,,,,,,,,,,,,,,,,,,,,63,2.3492,1,0,14,14,21,1,9,×,7,9 × 7,congruent,largerFirst,2,1,63,,,,,,,,
,,,,,,,,,,,,,,,764,2022-01-23_20h26.01.160,multiplicationStroop,2021.2.3,Win32,59.23468783,,,,,,,,,,,,,,,,,,,,,,,,,,,,,,,,,81,1.8328,1,0,15,15,35,1,9,×,9,9 × 9,neutral,tie,2,1,81,,,,,,,,
,,,,,,,,,,,,,,,764,2022-01-23_20h26.01.160,multiplicationStroop,2021.2.3,Win32,59.23468783,,,,,,,,,,,,,,,,,,,,,,,,,,,,,,,,,20,2.216,1,0,16,16,7,1,4,×,5,4 × 5,congruent,smallerFirst,1,2,20,,,,,,,,
,,,,,,,,,,,,,,,764,2022-01-23_20h26.01.160,multiplicationStroop,2021.2.3,Win32,59.23468783,,,,,,,,,,,,,,,,,,,,,,,,,,,,,,,,,9,1.5658,1,0,17,17,29,1,3,×,3,3 × 3,neutral,tie,2,1,9,,,,,,,,
,,,,,,,,,,,,,,,764,2022-01-23_20h26.01.160,multiplicationStroop,2021.2.3,Win32,59.23468783,,,,,,,,,,,,,,,,,,,,,,,,,,,,,,,,,16,2.5991,1,0,18,18,5,1,2,×,8,2 × 8,congruent,smallerFirst,1,2,16,,,,,,,,
,,,,,,,,,,,,,,,764,2022-01-23_20h26.01.160,multiplicationStroop,2021.2.3,Win32,59.23468783,,,,,,,,,,,,,,,,,,,,,,,,,,,,,,,,,49,1.9492,1,0,19,19,33,1,7,×,7,7 × 7,neutral,tie,2,1,49,,,,,,,,
,,,,,,,,,,,,,,,764,2022-01-23_20h26.01.160,multiplicationStroop,2021.2.3,Win32,59.23468783,,,,,,,,,,,,,,,,,,,,,,,,,,,,,,,,,54,2.3162,1,0,20,20,12,1,6,×,9,6 × 9,congruent,smallerFirst,1,2,54,,,,,,,,
,,,,,,,,,,,,,,,764,2022-01-23_20h26.01.160,multiplicationStroop,2021.2.3,Win32,59.23468783,,,,,,,,,,,,,,,,,,,,,,,,,,,,,,,,,56,2.6515,1,0,21,21,8,1,7,×,8,7 × 8,congruent,smallerFirst,1,2,56,,,,,,,,
,,,,,,,,,,,,,,,764,2022-01-23_20h26.01.160,multiplicationStroop,2021.2.3,Win32,59.23468783,,,,,,,,,,,,,,,,,,,,,,,,,,,,,,,,,15,2.3327,1,0,22,22,4,1,3,×,5,3 × 5,congruent,smallerFirst,1,2,15,,,,,,,,
,,,,,,,,,,,,,,,764,2022-01-23_20h26.01.160,multiplicationStroop,2021.2.3,Win32,59.23468783,,,,,,,,,,,,,,,,,,,,,,,,,,,,,,,,,10,1.6663,1,0,23,23,24,1,5,×,2,5 × 2,congruent,largerFirst,2,1,10,,,,,,,,
,,,,,,,,,,,,,,,764,2022-01-23_20h26.01.160,multiplicationStroop,2021.2.3,Win32,59.23468783,,,,,,,,,,,,,,,,,,,,,,,,,,,,,,,,,35,2.4488,1,0,24,24,1,1,5,×,7,5 × 7,congruent,smallerFirst,1,2,35,,,,,,,,
,,,,,,,,,,,,,,,764,2022-01-23_20h26.01.160,multiplicationStroop,2021.2.3,Win32,59.23468783,,,,,,,,,,,,,,,,,,,,,,,,,,,,,,,,,48,2.4823,1,0,25,25,18,1,8,×,6,8 × 6,congruent,largerFirst,2,1,48,,,,,,,,
,,,,,,,,,,,,,,,764,2022-01-23_20h26.01.160,multiplicationStroop,2021.2.3,Win32,59.23468783,,,,,,,,,,,,,,,,,,,,,,,,,,,,,,,,,8,1.7662,1,0,26,26,9,1,2,×,4,2 × 4,congruent,smallerFirst,1,2,8,,,,,,,,
,,,,,,,,,,,,,,,764,2022-01-23_20h26.01.160,multiplicationStroop,2021.2.3,Win32,59.23468783,,,,,,,,,,,,,,,,,,,,,,,,,,,,,,,,,18,1.9657,1,0,27,27,22,1,9,×,2,9 × 2,congruent,largerFirst,2,1,18,,,,,,,,
,,,,,,,,,,,,,,,764,2022-01-23_20h26.01.160,multiplicationStroop,2021.2.3,Win32,59.23468783,,,,,,,,,,,,,,,,,,,,,,,,,,,,,,,,,36,2.032,1,0,28,28,32,1,6,×,6,6 × 6,neutral,tie,2,1,36,,,,,,,,
,,,,,,,,,,,,,,,764,2022-01-23_20h26.01.160,multiplicationStroop,2021.2.3,Win32,59.23468783,,,,,,,,,,,,,,,,,,,,,,,,,,,,,,,,,45,3.3328,1,0,29,29,23,1,9,×,5,9 × 5,congruent,largerFirst,2,1,45,,,,,,,,
,,,,,,,,,,,,,,,764,2022-01-23_20h26.01.160,multiplicationStroop,2021.2.3,Win32,59.23468783,,,,,,,,,,,,,,,,,,,,,,,,,,,,,,,,,12,2.1685,1,0,30,30,2,1,3,×,4,3 × 4,congruent,smallerFirst,1,2,12,,,,,,,,
,,,,,,,,,,,,,,,764,2022-01-23_20h26.01.160,multiplicationStroop,2021.2.3,Win32,59.23468783,,,,,,,,,,,,,,,,,,,,,,,,,,,,,,,,,30,2.2317,1,0,31,31,15,1,6,×,5,6 × 5,congruent,largerFirst,2,1,30,,,,,,,,
,,,,,,,,,,,,,,,764,2022-01-23_20h26.01.160,multiplicationStroop,2021.2.3,Win32,59.23468783,,,,,,,,,,,,,,,,,,,,,,,,,,,,,,,,,12,1.4823,1,0,32,32,19,1,6,×,2,6 × 2,congruent,largerFirst,2,1,12,,,,,,,,
,,,,,,,,,,,,,,,764,2022-01-23_20h26.01.160,multiplicationStroop,2021.2.3,Win32,59.23468783,,,,,,,,,,,,,,,,,,,,,,,,,,,,,,,,,27,2.1994,1,0,33,33,26,1,9,×,3,9 × 3,congruent,largerFirst,2,1,27,,,,,,,,
,,,,,,,,,,,,,,,764,2022-01-23_20h26.01.160,multiplicationStroop,2021.2.3,Win32,59.23468783,,,,,,,,,,,,,,,,,,,,,,,,,,,,,,,,,21,2.1313,1,0,34,34,16,1,7,×,3,7 × 3,congruent,largerFirst,2,1,21,,,,,,,,
,,,,,,,,,,,,,,,764,2022-01-23_20h26.01.160,multiplicationStroop,2021.2.3,Win32,59.23468783,,,,,,,,,,,,,,,,,,,,,,,,,,,,,,,,,4,1.5494,1,0,35,35,28,1,2,×,2,2 × 2,neutral,tie,2,1,4,,,,,,,,
,,,,,,,,,,,,,,,764,2022-01-23_20h26.01.160,multiplicationStroop,2021.2.3,Win32,59.23468783,,,,,,,,,,,,,,,,,,,,,,,,,,,,,,,,,,,,,,,,,,,,,,,,,,0,3,3,2,1,stimulusFile/mult_blk3_congruent.xlsx,,
,,,,,,,,,,,,,,,764,2022-01-23_20h26.01.160,multiplicationStroop,2021.2.3,Win32,59.23468783,,,,,,,,,,,,,,,,,,,,,,,,,,,,,,,space,1.0088,18,2.7914,1,0,0,0,25,1,6,×,3,6 × 3,congruent,largerFirst,2,1,18,,,,,,,,
,,,,,,,,,,,,,,,764,2022-01-23_20h26.01.160,multiplicationStroop,2021.2.3,Win32,59.23468783,,,,,,,,,,,,,,,,,,,,,,,,,,,,,,,,,4,1.5023,1,0,1,1,28,1,2,×,2,2 × 2,neutral,tie,1,2,4,,,,,,,,
,,,,,,,,,,,,,,,764,2022-01-23_20h26.01.160,multiplicationStroop,2021.2.3,Win32,59.23468783,,,,,,,,,,,,,,,,,,,,,,,,,,,,,,,,,56,2.3986,1,0,2,2,22,1,8,×,7,8 × 7,congruent,largerFirst,2,1,56,,,,,,,,
,,,,,,,,,,,,,,,764,2022-01-23_20h26.01.160,multiplicationStroop,2021.2.3,Win32,59.23468783,,,,,,,,,,,,,,,,,,,,,,,,,,,,,,,,,24,1.9517,1,0,3,3,11,1,4,×,6,4 × 6,congruent,smallerFirst,1,2,24,,,,,,,,
,,,,,,,,,,,,,,,764,2022-01-23_20h26.01.160,multiplicationStroop,2021.2.3,Win32,59.23468783,,,,,,,,,,,,,,,,,,,,,,,,,,,,,,,,,40,2.065,1,0,4,4,20,1,8,×,5,8 × 5,congruent,largerFirst,2,1,40,,,,,,,,
,,,,,,,,,,,,,,,764,2022-01-23_20h26.01.160,multiplicationStroop,2021.2.3,Win32,59.23468783,,,,,,,,,,,,,,,,,,,,,,,,,,,,,,,,,28,2.0485,1,0,5,5,13,1,4,×,7,4 × 7,congruent,smallerFirst,1,2,28,,,,,,,,
,,,,,,,,,,,,,,,764,2022-01-23_20h26.01.160,multiplicationStroop,2021.2.3,Win32,59.23468783,,,,,,,,,,,,,,,,,,,,,,,,,,,,,,,,,16,2.0657,1,0,6,6,30,1,4,×,4,4 × 4,neutral,tie,1,2,16,,,,,,,,
,,,,,,,,,,,,,,,764,2022-01-23_20h26.01.160,multiplicationStroop,2021.2.3,Win32,59.23468783,,,,,,,,,,,,,,,,,,,,,,,,,,,,,,,,,72,2.465,1,0,7,7,3,1,8,×,9,8 × 9,congruent,smallerFirst,1,2,72,,,,,,,,
,,,,,,,,,,,,,,,764,2022-01-23_20h26.01.160,multiplicationStroop,2021.2.3,Win32,59.23468783,,,,,,,,,,,,,,,,,,,,,,,,,,,,,,,,,45,2.8162,1,0,8,8,9,1,5,×,9,5 × 9,congruent,smallerFirst,1,2,45,,,,,,,,
,,,,,,,,,,,,,,,764,2022-01-23_20h26.01.160,multiplicationStroop,2021.2.3,Win32,59.23468783,,,,,,,,,,,,,,,,,,,,,,,,,,,,,,,,,35,2.2314,1,0,9,9,15,1,7,×,5,7 × 5,congruent,largerFirst,2,1,35,,,,,,,,
,,,,,,,,,,,,,,,764,2022-01-23_20h26.01.160,multiplicationStroop,2021.2.3,Win32,59.23468783,,,,,,,,,,,,,,,,,,,,,,,,,,,,,,,,,12,1.8151,1,0,10,10,5,1,2,×,6,2 × 6,congruent,smallerFirst,1,2,12,,,,,,,,
,,,,,,,,,,,,,,,764,2022-01-23_20h26.01.160,multiplicationStroop,2021.2.3,Win32,59.23468783,,,,,,,,,,,,,,,,,,,,,,,,,,,,,,,,,24,1.7991,1,0,11,11,24,1,8,×,3,8 × 3,congruent,largerFirst,2,1,24,,,,,,,,
,,,,,,,,,,,,,,,764,2022-01-23_20h26.01.160,multiplicationStroop,2021.2.3,Win32,59.23468783,,,,,,,,,,,,,,,,,,,,,,,,,,,,,,,,,16,1.9317,1,0,12,12,19,1,8,×,2,8 × 2,congruent,largerFirst,2,1,16,,,,,,,,
,,,,,,,,,,,,,,,764,2022-01-23_20h26.01.160,multiplicationStroop,2021.2.3,Win32,59.23468783,,,,,,,,,,,,,,,,,,,,,,,,,,,,,,,,,15,1.7827,1,0,13,13,18,1,5,×,3,5 × 3,congruent,largerFirst,2,1,15,,,,,,,,
,,,,,,,,,,,,,,,764,2022-01-23_20h26.01.160,multiplicationStroop,2021.2.3,Win32,59.23468783,,,,,,,,,,,,,,,,,,,,,,,,,,,,,,,,,36,1.8485,1,0,14,14,32,1,6,×,6,6 × 6,neutral,tie,1,2,36,,,,,,,,
,,,,,,,,,,,,,,,764,2022-01-23_20h26.01.160,multiplicationStroop,2021.2.3,Win32,59.23468783,,,,,,,,,,,,,,,,,,,,,,,,,,,,,,,,,36,4.315,1,0,15,15,14,1,9,×,4,9 × 4,congruent,largerFirst,2,1,36,,,,,,,,
,,,,,,,,,,,,,,,764,2022-01-23_20h26.01.160,multiplicationStroop,2021.2.3,Win32,59.23468783,,,,,,,,,,,,,,,,,,,,,,,,,,,,,,,,,10,1.9351,1,0,16,16,10,1,2,×,5,2 × 5,congruent,smallerFirst,1,2,10,,,,,,,,
,,,,,,,,,,,,,,,764,2022-01-23_20h26.01.160,multiplicationStroop,2021.2.3,Win32,59.23468783,,,,,,,,,,,,,,,,,,,,,,,,,,,,,,,,,12,1.5159,1,0,17,17,16,1,4,×,3,4 × 3,congruent,largerFirst,2,1,12,,,,,,,,
,,,,,,,,,,,,,,,764,2022-01-23_20h26.01.160,multiplicationStroop,2021.2.3,Win32,59.23468783,,,,,,,,,,,,,,,,,,,,,,,,,,,,,,,,,6,1.8989,1,0,18,18,27,1,3,×,2,3 × 2,congruent,largerFirst,2,1,6,,,,,,,,
,,,,,,,,,,,,,,,764,2022-01-23_20h26.01.160,multiplicationStroop,2021.2.3,Win32,59.23468783,,,,,,,,,,,,,,,,,,,,,,,,,,,,,,,,,48,2.4158,1,0,19,19,4,1,6,×,8,6 × 8,congruent,smallerFirst,1,2,48,,,,,,,,
,,,,,,,,,,,,,,,764,2022-01-23_20h26.01.160,multiplicationStroop,2021.2.3,Win32,59.23468783,,,,,,,,,,,,,,,,,,,,,,,,,,,,,,,,,54,2.9316,1,0,20,20,26,1,9,×,6,9 × 6,congruent,largerFirst,2,1,54,,,,,,,,
,,,,,,,,,,,,,,,764,2022-01-23_20h26.01.160,multiplicationStroop,2021.2.3,Win32,59.23468783,,,,,,,,,,,,,,,,,,,,,,,,,,,,,,,,,63,3.1014,1,0,21,21,7,1,7,×,9,7 × 9,congruent,smallerFirst,1,2,63,,,,,,,,
,,,,,,,,,,,,,,,764,2022-01-23_20h26.01.160,multiplicationStroop,2021.2.3,Win32,59.23468783,,,,,,,,,,,,,,,,,,,,,,,,,,,,,,,,,20,1.9317,1,0,22,22,21,1,5,×,4,5 × 4,congruent,largerFirst,2,1,20,,,,,,,,
,,,,,,,,,,,,,,,764,2022-01-23_20h26.01.160,multiplicationStroop,2021.2.3,Win32,59.23468783,,,,,,,,,,,,,,,,,,,,,,,,,,,,,,,,,8,1.9653,1,0,23,23,23,1,4,×,2,4 × 2,congruent,largerFirst,2,1,8,,,,,,,,
,,,,,,,,,,,,,,,764,2022-01-23_20h26.01.160,multiplicationStroop,2021.2.3,Win32,59.23468783,,,,,,,,,,,,,,,,,,,,,,,,,,,,,,,,,49,2.799,1,0,24,24,33,1,7,×,7,7 × 7,neutral,tie,1,2,49,,,,,,,,
,,,,,,,,,,,,,,,764,2022-01-23_20h26.01.160,multiplicationStroop,2021.2.3,Win32,59.23468783,,,,,,,,,,,,,,,,,,,,,,,,,,,,,,,,,18,2.5154,1,0,25,25,8,1,2,×,9,2 × 9,congruent,smallerFirst,1,2,18,,,,,,,,
,,,,,,,,,,,,,,,764,2022-01-23_20h26.01.160,multiplicationStroop,2021.2.3,Win32,59.23468783,,,,,,,,,,,,,,,,,,,,,,,,,,,,,,,,,30,3.0349,1,0,26,26,1,1,5,×,6,5 × 6,congruent,smallerFirst,1,2,30,,,,,,,,
,,,,,,,,,,,,,,,764,2022-01-23_20h26.01.160,multiplicationStroop,2021.2.3,Win32,59.23468783,,,,,,,,,,,,,,,,,,,,,,,,,,,,,,,,,9,1.6654,1,0,27,27,29,1,3,×,3,3 × 3,neutral,tie,1,2,9,,,,,,,,
,,,,,,,,,,,,,,,764,2022-01-23_20h26.01.160,multiplicationStroop,2021.2.3,Win32,59.23468783,,,,,,,,,,,,,,,,,,,,,,,,,,,,,,,,,25,2.0661,1,0,28,28,31,1,5,×,5,5 × 5,neutral,tie,1,2,25,,,,,,,,
,,,,,,,,,,,,,,,764,2022-01-23_20h26.01.160,multiplicationStroop,2021.2.3,Win32,59.23468783,,,,,,,,,,,,,,,,,,,,,,,,,,,,,,,,,81,2.4818,1,0,29,29,35,1,9,×,9,9 × 9,neutral,tie,1,2,81,,,,,,,,
,,,,,,,,,,,,,,,764,2022-01-23_20h26.01.160,multiplicationStroop,2021.2.3,Win32,59.23468783,,,,,,,,,,,,,,,,,,,,,,,,,,,,,,,,,14,2.799,1,0,30,30,0,1,2,×,7,2 × 7,congruent,smallerFirst,1,2,14,,,,,,,,
,,,,,,,,,,,,,,,764,2022-01-23_20h26.01.160,multiplicationStroop,2021.2.3,Win32,59.23468783,,,,,,,,,,,,,,,,,,,,,,,,,,,,,,,,,27,2.768,1,0,31,31,12,1,3,×,9,3 × 9,congruent,smallerFirst,1,2,27,,,,,,,,
,,,,,,,,,,,,,,,764,2022-01-23_20h26.01.160,multiplicationStroop,2021.2.3,Win32,59.23468783,,,,,,,,,,,,,,,,,,,,,,,,,,,,,,,,,21,1.9164,1,0,32,32,2,1,3,×,7,3 × 7,congruent,smallerFirst,1,2,21,,,,,,,,
,,,,,,,,,,,,,,,764,2022-01-23_20h26.01.160,multiplicationStroop,2021.2.3,Win32,59.23468783,,,,,,,,,,,,,,,,,,,,,,,,,,,,,,,,,42,8.8138,1,0,33,33,17,1,7,×,6,7 × 6,congruent,largerFirst,2,1,42,,,,,,,,
,,,,,,,,,,,,,,,764,2022-01-23_20h26.01.160,multiplicationStroop,2021.2.3,Win32,59.23468783,,,,,,,,,,,,,,,,,,,,,,,,,,,,,,,,,64,2.4475,1,0,34,34,34,1,8,×,8,8 × 8,neutral,tie,1,2,64,,,,,,,,
,,,,,,,,,,,,,,,764,2022-01-23_20h26.01.160,multiplicationStroop,2021.2.3,Win32,59.23468783,,,,,,,,,,,,,,,,,,,,,,,,,,,,,,,,,32,2.0988,1,0,35,35,6,1,4,×,8,4 × 8,congruent,smallerFirst,1,2,32,,,,,,,,
,,,,,,,,,,,,,,,764,2022-01-23_20h26.01.160,multiplicationStroop,2021.2.3,Win32,59.23468783,,,,,,,,,,,,,,,,,,,,,,,,,,,,,,,,,,,,,,,,,,,,,,,,,,0,4,4,3,1,stimulusFile/mult_blk4_congruent.xlsx,,
,,,,,,,,,,,,,,,764,2022-01-23_20h26.01.160,multiplicationStroop,2021.2.3,Win32,59.23468783,,,,,,,,,,,,,,,,,,,,,,,,,,,,,,,space,120.5213,35,2.0773,1,0,0,0,15,1,7,×,5,7 × 5,neutral,largerFirst,1.5,1.5,35,,,,,,,,
,,,,,,,,,,,,,,,764,2022-01-23_20h26.01.160,multiplicationStroop,2021.2.3,Win32,59.23468783,,,,,,,,,,,,,,,,,,,,,,,,,,,,,,,,,16,2.1818,1,0,1,1,30,1,4,×,4,4 × 4,neutral,tie,1.5,1.5,16,,,,,,,,
,,,,,,,,,,,,,,,764,2022-01-23_20h26.01.160,multiplicationStroop,2021.2.3,Win32,59.23468783,,,,,,,,,,,,,,,,,,,,,,,,,,,,,,,,,21,2.2823,1,0,2,2,22,1,7,×,3,7 × 3,neutral,largerFirst,1.5,1.5,21,,,,,,,,
,,,,,,,,,,,,,,,764,2022-01-23_20h26.01.160,multiplicationStroop,2021.2.3,Win32,59.23468783,,,,,,,,,,,,,,,,,,,,,,,,,,,,,,,,,6,1.7149,1,0,3,3,12,1,2,×,3,2 × 3,neutral,smallerFirst,1.5,1.5,6,,,,,,,,
,,,,,,,,,,,,,,,764,2022-01-23_20h26.01.160,multiplicationStroop,2021.2.3,Win32,59.23468783,,,,,,,,,,,,,,,,,,,,,,,,,,,,,,,,,45,1.9989,1,0,4,4,24,1,9,×,5,9 × 5,neutral,largerFirst,1.5,1.5,45,,,,,,,,
,,,,,,,,,,,,,,,764,2022-01-23_20h26.01.160,multiplicationStroop,2021.2.3,Win32,59.23468783,,,,,,,,,,,,,,,,,,,,,,,,,,,,,,,,,8,1.749,1,0,5,5,17,1,4,×,2,4 × 2,neutral,largerFirst,1.5,1.5,8,,,,,,,,
,,,,,,,,,,,,,,,764,2022-01-23_20h26.01.160,multiplicationStroop,2021.2.3,Win32,59.23468783,,,,,,,,,,,,,,,,,,,,,,,,,,,,,,,,,32,2.1817,1,0,6,6,9,1,4,×,8,4 × 8,neutral,smallerFirst,1.5,1.5,32,,,,,,,,
,,,,,,,,,,,,,,,764,2022-01-23_20h26.01.160,multiplicationStroop,2021.2.3,Win32,59.23468783,,,,,,,,,,,,,,,,,,,,,,,,,,,,,,,,,63,2.5991,1,0,7,7,26,1,9,×,7,9 × 7,neutral,largerFirst,1.5,1.5,63,,,,,,,,
,,,,,,,,,,,,,,,764,2022-01-23_20h26.01.160,multiplicationStroop,2021.2.3,Win32,59.23468783,,,,,,,,,,,,,,,,,,,,,,,,,,,,,,,,,18,1.9825,1,0,8,8,14,1,6,×,3,6 × 3,neutral,largerFirst,1.5,1.5,18,,,,,,,,
,,,,,,,,,,,,,,,764,2022-01-23_20h26.01.160,multiplicationStroop,2021.2.3,Win32,59.23468783,,,,,,,,,,,,,,,,,,,,,,,,,,,,,,,,,24,2.5819,1,0,9,9,16,1,6,×,4,6 × 4,neutral,largerFirst,1.5,1.5,24,,,,,,,,
,,,,,,,,,,,,,,,764,2022-01-23_20h26.01.160,multiplicationStroop,2021.2.3,Win32,59.23468783,,,,,,,,,,,,,,,,,,,,,,,,,,,,,,,,,48,2.065,1,0,10,10,1,1,6,×,8,6 × 8,neutral,smallerFirst,1.5,1.5,48,,,,,,,,
,,,,,,,,,,,,,,,764,2022-01-23_20h26.01.160,multiplicationStroop,2021.2.3,Win32,59.23468783,,,,,,,,,,,,,,,,,,,,,,,,,,,,,,,,,25,2.2481,1,0,11,11,31,1,5,×,5,5 × 5,neutral,tie,1.5,1.5,25,,,,,,,,
,,,,,,,,,,,,,,,764,2022-01-23_20h26.01.160,multiplicationStroop,2021.2.3,Win32,59.23468783,,,,,,,,,,,,,,,,,,,,,,,,,,,,,,,,,36,2.2657,1,0,12,12,13,1,4,×,9,4 × 9,neutral,smallerFirst,1.5,1.5,36,,,,,,,,
,,,,,,,,,,,,,,,764,2022-01-23_20h26.01.160,multiplicationStroop,2021.2.3,Win32,59.23468783,,,,,,,,,,,,,,,,,,,,,,,,,,,,,,,,,15,2.2485,1,0,13,13,19,1,5,×,3,5 × 3,neutral,largerFirst,1.5,1.5,15,,,,,,,,
,,,,,,,,,,,,,,,764,2022-01-23_20h26.01.160,multiplicationStroop,2021.2.3,Win32,59.23468783,,,,,,,,,,,,,,,,,,,,,,,,,,,,,,,,,64,2.3012,1,0,14,14,34,1,8,×,8,8 × 8,neutral,tie,1.5,1.5,64,,,,,,,,
,,,,,,,,,,,,,,,764,2022-01-23_20h26.01.160,multiplicationStroop,2021.2.3,Win32,59.23468783,,,,,,,,,,,,,,,,,,,,,,,,,,,,,,,,,18,2.4986,1,0,15,15,4,1,2,×,9,2 × 9,neutral,smallerFirst,1.5,1.5,18,,,,,,,,
,,,,,,,,,,,,,,,764,2022-01-23_20h26.01.160,multiplicationStroop,2021.2.3,Win32,59.23468783,,,,,,,,,,,,,,,,,,,,,,,,,,,,,,,,,9,1.9657,1,0,16,16,29,1,3,×,3,3 × 3,neutral,tie,1.5,1.5,9,,,,,,,,
,,,,,,,,,,,,,,,764,2022-01-23_20h26.01.160,multiplicationStroop,2021.2.3,Win32,59.23468783,,,,,,,,,,,,,,,,,,,,,,,,,,,,,,,,,49,2.0656,1,0,17,17,33,1,7,×,7,7 × 7,neutral,tie,1.5,1.5,49,,,,,,,,
,,,,,,,,,,,,,,,764,2022-01-23_20h26.01.160,multiplicationStroop,2021.2.3,Win32,59.23468783,,,,,,,,,,,,,,,,,,,,,,,,,,,,,,,,,36,1.965,1,0,18,18,32,1,6,×,6,6 × 6,neutral,tie,1.5,1.5,36,,,,,,,,
,,,,,,,,,,,,,,,764,2022-01-23_20h26.01.160,multiplicationStroop,2021.2.3,Win32,59.23468783,,,,,,,,,,,,,,,,,,,,,,,,,,,,,,,,,10,1.8315,1,0,19,19,18,1,5,×,2,5 × 2,neutral,largerFirst,1.5,1.5,10,,,,,,,,
,,,,,,,,,,,,,,,764,2022-01-23_20h26.01.160,multiplicationStroop,2021.2.3,Win32,59.23468783,,,,,,,,,,,,,,,,,,,,,,,,,,,,,,,,,28,2.3824,1,0,20,20,3,1,4,×,7,4 × 7,neutral,smallerFirst,1.5,1.5,28,,,,,,,,
,,,,,,,,,,,,,,,764,2022-01-23_20h26.01.160,multiplicationStroop,2021.2.3,Win32,59.23468783,,,,,,,,,,,,,,,,,,,,,,,,,,,,,,,,,30,2.2985,1,0,21,21,5,1,5,×,6,5 × 6,neutral,smallerFirst,1.5,1.5,30,,,,,,,,
,,,,,,,,,,,,,,,764,2022-01-23_20h26.01.160,multiplicationStroop,2021.2.3,Win32,59.23468783,,,,,,,,,,,,,,,,,,,,,,,,,,,,,,,,,16,3.5318,1,0,22,22,27,1,8,×,2,8 × 2,neutral,largerFirst,1.5,1.5,16,,,,,,,,
,,,,,,,,,,,,,,,764,2022-01-23_20h26.01.160,multiplicationStroop,2021.2.3,Win32,59.23468783,,,,,,,,,,,,,,,,,,,,,,,,,,,,,,,,,27,2.4341,1,0,23,23,0,1,3,×,9,3 × 9,neutral,smallerFirst,1.5,1.5,27,,,,,,,,
,,,,,,,,,,,,,,,764,2022-01-23_20h26.01.160,multiplicationStroop,2021.2.3,Win32,59.23468783,,,,,,,,,,,,,,,,,,,,,,,,,,,,,,,,,12,1.8992,1,0,24,24,7,1,3,×,4,3 × 4,neutral,smallerFirst,1.5,1.5,12,,,,,,,,
,,,,,,,,,,,,,,,764,2022-01-23_20h26.01.160,multiplicationStroop,2021.2.3,Win32,59.23468783,,,,,,,,,,,,,,,,,,,,,,,,,,,,,,,,,12,1.9654,1,0,25,25,11,1,2,×,6,2 × 6,neutral,smallerFirst,1.5,1.5,12,,,,,,,,
,,,,,,,,,,,,,,,764,2022-01-23_20h26.01.160,multiplicationStroop,2021.2.3,Win32,59.23468783,,,,,,,,,,,,,,,,,,,,,,,,,,,,,,,,,56,2.0989,1,0,26,26,23,1,8,×,7,8 × 7,neutral,largerFirst,1.5,1.5,56,,,,,,,,
,,,,,,,,,,,,,,,764,2022-01-23_20h26.01.160,multiplicationStroop,2021.2.3,Win32,59.23468783,,,,,,,,,,,,,,,,,,,,,,,,,,,,,,,,,54,1.915,1,0,27,27,21,1,9,×,6,9 × 6,neutral,largerFirst,1.5,1.5,54,,,,,,,,
,,,,,,,,,,,,,,,764,2022-01-23_20h26.01.160,multiplicationStroop,2021.2.3,Win32,59.23468783,,,,,,,,,,,,,,,,,,,,,,,,,,,,,,,,,40,2.2661,1,0,28,28,10,1,5,×,8,5 × 8,neutral,smallerFirst,1.5,1.5,40,,,,,,,,
,,,,,,,,,,,,,,,764,2022-01-23_20h26.01.160,multiplicationStroop,2021.2.3,Win32,59.23468783,,,,,,,,,,,,,,,,,,,,,,,,,,,,,,,,,81,1.9489,1,0,29,29,35,1,9,×,9,9 × 9,neutral,tie,1.5,1.5,81,,,,,,,,
,,,,,,,,,,,,,,,764,2022-01-23_20h26.01.160,multiplicationStroop,2021.2.3,Win32,59.23468783,,,,,,,,,,,,,,,,,,,,,,,,,,,,,,,,,42,3.5144,1,0,30,30,20,1,7,×,6,7 × 6,neutral,largerFirst,1.5,1.5,42,,,,,,,,
,,,,,,,,,,,,,,,764,2022-01-23_20h26.01.160,multiplicationStroop,2021.2.3,Win32,59.23468783,,,,,,,,,,,,,,,,,,,,,,,,,,,,,,,,,4,1.6125,1,0,31,31,28,1,2,×,2,2 × 2,neutral,tie,1.5,1.5,4,,,,,,,,
,,,,,,,,,,,,,,,764,2022-01-23_20h26.01.160,multiplicationStroop,2021.2.3,Win32,59.23468783,,,,,,,,,,,,,,,,,,,,,,,,,,,,,,,,,20,2.3153,1,0,32,32,6,1,4,×,5,4 × 5,neutral,smallerFirst,1.5,1.5,20,,,,,,,,
,,,,,,,,,,,,,,,764,2022-01-23_20h26.01.160,multiplicationStroop,2021.2.3,Win32,59.23468783,,,,,,,,,,,,,,,,,,,,,,,,,,,,,,,,,72,3.7493,1,0,33,33,25,1,9,×,8,9 × 8,neutral,largerFirst,1.5,1.5,72,,,,,,,,
,,,,,,,,,,,,,,,764,2022-01-23_20h26.01.160,multiplicationStroop,2021.2.3,Win32,59.23468783,,,,,,,,,,,,,,,,,,,,,,,,,,,,,,,,,14,2.6174,1,0,34,34,2,1,2,×,7,2 × 7,neutral,smallerFirst,1.5,1.5,14,,,,,,,,
,,,,,,,,,,,,,,,764,2022-01-23_20h26.01.160,multiplicationStroop,2021.2.3,Win32,59.23468783,,,,,,,,,,,,,,,,,,,,,,,,,,,,,,,,,24,2.0824,1,0,35,35,8,1,3,×,8,3 × 8,neutral,smallerFirst,1.5,1.5,24,,,,,,,,
,,,,,,,,,,,,,,,764,2022-01-23_20h26.01.160,multiplicationStroop,2021.2.3,Win32,59.23468783,,,,,,,,,,,,,,,,,,,,,,,,,,,,,,,,,,,,,,,,,,,,,,,,,,0,5,5,0,1,stimulusFile/mult_blk1.xlsx,,
,,,,,,,,,,,,,,,764,2022-01-23_20h26.01.160,multiplicationStroop,2021.2.3,Win32,59.23468783,,,,,,,,,,,,,,,,,,,,,,,,,,,,,,,,,,,,,,,,,,,,,,,,,,,,,,,,space,18.6231
