participant,total_trials_fluency,total_solved_fluency,accuracy_rate_fluency,mean_RT_fluency,median_RT_fluency,sd_RT_fluency,combined_fluency_score,date,total_trial_typing,num_correct_responses_typing,mean_RT_correct_typing,median_RT_correct_typing,sd_RT_correct_typing,percentage_accuracy_typing,total_trials_speed,total_solved_speed,accuracy_rate_speed,mean_RT_speed,median_RT_speed,sd_RT_speed,combined_speed_score
653,39,38,0.6333333333333333,2.3053763157894736,1.9573,1.040125255044148,0.3235749927621383,2022-06-20,62,62,1.6514467741935484,1.58215,0.35972246711886,100,64,62,0.96875,0.41721290322580645,0.3618,0.3462744266030946,2.677584300718629
656,41,40,0.6666666666666666,2.175,2.0154,0.669920710960901,0.3307862789851477,2022-06-17,62,61,2.03467868852459,1.9529,0.5913178993048082,98.38709677419355,64,64,1,0.5056046875,0.4662,0.1906527437721191,2.145002145002145
657,37,34,0.5666666666666667,2.3842323529411766,2.0271999999999997,0.9310970075166267,0.27953170218363593,2022-06-14,62,61,1.866288524590164,1.6027,0.6435979058124103,98.38709677419355,64,64,1,0.39540000000000003,0.3635,0.1169426490832287,2.751031636863824
658,42,40,0.6666666666666666,2.11308,1.8585,0.696078610797844,0.35871222311900275,2022-06-14,62,61,1.6313622950819673,1.5979,0.34702292391326467,98.38709677419355,64,64,1,0.3856234375,0.3507,0.2120888940179891,2.85143997718848
674,48,48,0.8,1.8375145833333333,1.72495,0.4366511339290496,0.46378155888576483,2022-04-16,62,61,1.796567213114754,1.6496,0.42337809056890335,98.38709677419355,64,62,0.96875,0.5328403225806452,0.4968,0.16179208319167163,1.9499798711755232
675,31,29,0.48333333333333334,2.873341379310345,2.5288,1.2438893581703552,0.191131498470948,2022-04-09,62,61,1.8285901639344262,1.7644,0.4850579486703689,98.38709677419355,64,64,1,0.4100296875,0.39985,0.09097892251921835,2.5009378516943856
676,38,36,0.6,2.3479694444444443,2.1171,0.7153214733129013,0.28340654669122856,2022-04-06,62,62,1.8362403225806452,1.66625,0.6882194718708482,100,64,63,0.984375,0.3823063492063492,0.3574,0.08071951011915329,2.7542669278119756
679,50,49,0.8166666666666667,1.7878163265306122,1.6166,0.6056450697902398,0.5051754711534496,2022-02-08,62,62,1.5218209677419354,1.433,0.3080937126632977,100,64,62,0.96875,0.3763983870967742,0.3205,0.3554270977298081,3.0226209048361934
680,34,33,0.55,2.6384242424242426,2.433,0.8695610253995629,0.22605836415947395,2022-02-13,62,62,1.645516129032258,1.5835,0.29835525869561497,100,64,64,1,0.354,0.3195,0.23479271506505286,3.1298904538341157
681,44,43,0.7166666666666667,2.055920930232558,1.8311,0.727204341675361,0.39138587005989117,2022-02-05,62,60,1.8452616666666666,1.59795,0.9762340484326537,96.7741935483871,64,64,1,0.3907140625,0.36160000000000003,0.1093405498013119,2.765486725663717
682,23,21,0.35,3.203057142857143,2.3066,2.127805279289303,0.15173848955172115,2022-02-13,62,61,1.6638032786885246,1.632,0.2345099528571678,98.38709677419355,64,63,0.984375,0.30730793650793653,0.297,0.038708114934756975,3.3143939393939394
683,51,47,0.7833333333333333,1.7748872340425532,1.6154,0.5459144715688256,0.4849160166728571,2022-02-05,62,62,1.4716983870967741,1.4321000000000002,0.2582090355950575,100,64,63,0.984375,0.3314809523809524,0.315,0.07903637353151917,3.125
684,31,26,0.43333333333333335,2.876469230769231,2.23925,1.6539278102188693,0.1935171746492501,2022-02-06,62,61,1.6033327868852458,1.5154,0.3910190953228547,98.38709677419355,64,64,1,0.40799843750000003,0.40085,0.05138247027428805,2.4946987651241113
685,41,39,0.65,2.1252794871794873,1.9662,0.6194055992726062,0.3305869189299156,2022-02-07,62,62,1.8323016129032257,1.6997499999999999,0.5663411398783134,100,64,63,0.984375,0.38135079365079366,0.3233,0.2399855391295389,3.044772656974946
686,51,49,0.8166666666666667,1.7363877551020408,1.616,0.5220471249612165,0.5053630363036303,2022-02-01,62,62,1.295516129032258,1.2605,0.23105877060456836,100,64,64,1,0.302503125,0.29935,0.0535808037431495,3.3405712376816434
687,47,47,0.7833333333333333,1.8946127659574468,1.7654,0.49347552629373503,0.4437143612401344,2022-02-01,62,61,1.6021229508196722,1.4478,0.5196807688037732,98.38709677419355,64,62,0.96875,0.28321290322580644,0.27465,0.056011291261763935,3.5272164573093026
689,44,43,0.7166666666666667,2.0480767441860466,1.8988,0.5628596216926601,0.37743136015729234,2022-02-01,62,62,1.7624790322580646,1.75705,0.24513475259578285,100,64,63,0.984375,0.3837380952380952,0.3505,0.17023695670614952,2.80848787446505
690,48,48,0.8,1.8335229166666667,1.7577500000000001,0.5147892810963896,0.45512729341487695,2022-02-05,62,62,1.5626645161290322,1.44665,0.4019953902748402,100,64,61,0.953125,0.3086065573770492,0.2859,0.10139168254653583,3.333770549143057
692,39,38,0.6333333333333333,2.2828684210526315,1.9621,1.4437640147638982,0.32278341233032637,2022-02-02,62,61,1.9520081967213114,1.8851,0.3810961756543362,98.38709677419355,64,64,1,0.3706109375,0.3335,0.12313310789314387,2.998500749625187
694,38,38,0.6333333333333333,2.356292105263158,2.207,0.6115049894302996,0.28696571514876906,2022-01-31,62,61,1.8761360655737704,1.7496,0.4404858541174683,98.38709677419355,64,62,0.96875,0.3404258064516129,0.31889999999999996,0.06825773464965644,3.0377861398557546
695,34,32,0.5333333333333333,2.6614750000000003,2.2367,1.3044528557610757,0.23844652091623075,2022-01-31,62,61,1.59637868852459,1.5669,0.2993756921298912,98.38709677419355,64,64,1,0.340190625,0.32865,0.07308340466684903,3.0427506465845124
696,41,41,0.6833333333333333,2.1740756097560974,1.7986,0.9083008151984913,0.3799251269505912,2022-01-29,62,61,1.674888524590164,1.6648,0.3975919030439632,98.38709677419355,64,62,0.96875,0.3512258064516129,0.3439,0.05989122088839824,2.816952602500727
697,44,41,0.6833333333333333,1.987219512195122,1.8824,0.660580587521126,0.36301175803938235,2022-01-31,62,61,1.5002098360655738,1.4326,0.29446268054708163,98.38709677419355,64,59,0.921875,0.3054067796610169,0.2773,0.10374582478413417,3.3244680851063833
698,41,39,0.65,2.092925641025641,1.9159,0.49034853432503483,0.33926614123910437,2022-01-29,62,58,1.8573103448275863,1.66885,0.8010188165408543,93.54838709677419,64,63,0.984375,0.40095555555555557,0.3719,0.11415320178033778,2.6468808819575154
702,37,34,0.5666666666666667,2.3237058823529413,2.0728,0.7575722175560785,0.2733822205068828,2022-01-30,62,61,1.6269245901639344,1.5831,0.2564831148800623,98.38709677419355,64,62,0.96875,0.31814677419354837,0.2986,0.07520753301505423,3.2443067649028805
704,38,37,0.6166666666666667,2.3498027027027026,2.0521,0.8307780508142442,0.3005051735620422,2022-02-03,62,61,1.4946737704918034,1.4664,0.239101080369537,98.38709677419355,64,61,0.953125,0.3448672131147541,0.3347,0.06599994121540682,2.8476994323274574
706,43,42,0.7,2.0661666666666667,1.8992,0.5920339017429729,0.3685762426284751,2022-01-28,62,62,1.6449822580645161,1.5425,0.38307030708718043,100,64,63,0.984375,0.3249095238095238,0.3029,0.0941834598078797,3.2498349290194786
708,40,40,0.6666666666666666,2.23554,1.8855,1.1979507863698335,0.35357553257314595,2022-01-27,62,62,1.8432274193548388,1.7828,0.36383667168399003,100,64,63,0.984375,0.39216666666666666,0.3871,0.11008515032728367,2.5429475587703436
712,50,49,0.8166666666666667,1.775004081632653,1.6748,0.3460532136097855,0.4876204123875487,2022-01-26,62,62,1.4298629032258066,1.3657,0.3450069912496053,100,64,64,1,0.3119328125,0.2865,0.12218480935209877,3.490401396160559
713,29,27,0.45,3.039688888888889,2.1305,2.2097516204547887,0.2112180239380427,2022-02-05,62,61,1.757695081967213,1.7126,0.5373033809144296,98.38709677419355,64,58,0.90625,0.34475,0.31825000000000003,0.13091787200579721,2.847604084838963
714,51,50,0.8333333333333334,1.7406,1.5234999999999999,0.7219725247754324,0.5469861065528936,2022-01-27,62,60,1.2468166666666667,1.19,0.3039088563004591,96.7741935483871,64,62,0.96875,0.2764483870967742,0.26285000000000003,0.05862204794744566,3.6855621076659686
715,56,55,0.9166666666666666,1.600001818181818,1.5165,0.26752099986169936,0.604462028794373,2022-01-26,62,62,1.3823112903225807,1.34885,0.2436434946666743,100,64,64,1,0.3100921875,0.29300000000000004,0.05916838845164102,3.41296928327645
719,43,42,0.7,2.0641214285714287,1.90635,0.6453920421466336,0.3671938521257901,2022-01-24,62,61,1.5466180327868853,1.5019,0.2627793583396514,98.38709677419355,64,63,0.984375,0.3100777777777778,0.3057,0.04605014253224568,3.220068694798822
721,29,28,0.4666666666666667,2.9731785714285714,2.323,3.184078319499851,0.2008896541828096,2022-01-24,62,62,2.088741935483871,1.8215,1.5570796534105262,100,64,62,0.96875,0.3671129032258065,0.3515,0.09202531811974171,2.756045519203414
723,25,24,0.4,3.2026749999999997,2.58935,2.07855834429832,0.15447892328190474,2022-01-23,62,61,2.3393770491803276,1.9613,2.2197582337868416,98.38709677419355,64,63,0.984375,0.3676174603174603,0.3537,0.07260348685237784,2.7830788804071247
726,34,33,0.55,2.645,2.2487,1.8434167481879948,0.2445857606617157,2022-01-22,62,62,1.8907354838709678,1.74095,0.6003557519372894,100,64,61,0.953125,0.3399606557377049,0.3201,0.08237097239256176,2.9775851296469855
730,33,26,0.43333333333333335,2.724846153846154,1.84515,2.4158676258819765,0.23484992186723752,2022-01-22,62,62,1.527606451612903,1.48415,0.2417222114301413,100,64,63,0.984375,0.35663968253968253,0.3337,0.05487895048512869,2.9498801318549597
732,40,39,0.65,2.2134692307692307,1.7978,1.2374384529413227,0.36155300923350764,2022-01-24,62,62,1.6165548387096775,1.5484,0.3081002868863996,100,64,61,0.953125,0.30885245901639347,0.2834,0.13157576348066205,3.36317925194072
733,37,36,0.6,2.2673444444444444,2.0789,0.6837097752887528,0.28861417095579395,2022-01-22,62,62,1.7627741935483872,1.55755,1.0449947914115205,100,64,59,0.921875,0.3334491525423729,0.2822,0.25396076493935005,3.266743444365698
734,45,45,0.75,1.9905688888888888,1.943,0.5695580470945003,0.3860010293360782,2022-01-22,62,60,1.6846666666666668,1.58285,0.45042432787455305,96.7741935483871,64,64,1,0.2791703125,0.2651,0.051091836640791886,3.7721614485099964
739,41,40,0.6666666666666666,2.1540525,1.9650500000000002,0.5681804376579499,0.33926193565897383,2022-01-20,62,61,1.6251245901639344,1.6154,0.28402564359328414,98.38709677419355,64,64,1,0.34716875,0.33885,0.043840178263309215,2.9511583296443855
740,41,41,0.6833333333333333,2.181709756097561,1.7772,1.0081490489518101,0.38449996248780854,2022-01-20,62,60,1.4852483333333333,1.28745,0.48350620190987287,96.7741935483871,64,63,0.984375,0.3271603174603175,0.3306,0.05669996739966788,2.977540834845735
741,27,27,0.45,3.191240740740741,2.5696,1.817482619377113,0.17512453300124534,2022-01-19,62,60,1.8383533333333333,1.76245,0.3894820487004337,96.7741935483871,64,64,1,0.37495625,0.3385,0.14626737517191774,2.954209748892171
742,43,42,0.7,2.0229738095238097,1.8072,0.594084424098011,0.38733953076582556,2022-01-19,62,62,1.5857612903225806,1.48175,0.48081863945854564,100,64,64,1,0.3272125,0.31765,0.04130679447550088,3.1481189988981586
743,53,51,0.85,1.658394117647059,1.6156,0.34307961082627153,0.5261203268135677,2022-01-19,62,62,1.4302903225806451,1.3660999999999999,0.3904451711932047,100,64,63,0.984375,0.5017777777777778,0.4326,0.42763145854452483,2.275485436893204
745,29,28,0.4666666666666667,3.060807142857143,2.5253,1.8521085695175705,0.18479652582531447,2022-01-20,62,61,1.771211475409836,1.7658,0.3418651362249742,98.38709677419355,64,62,0.96875,0.43219032258064516,0.41264999999999996,0.1321547363170983,2.347631164425058
746,27,25,0.4166666666666667,3.3388,2.6991,1.8386407785372325,0.15437244513603302,2022-01-19,62,61,1.8742754098360657,1.7995,0.39313047395478323,98.38709677419355,64,62,0.96875,0.38290967741935483,0.334,0.16884524169344303,2.900449101796407
747,48,48,0.8,1.8703583333333333,1.7403499999999998,0.6018573559825904,0.4596776510472032,2022-01-18,62,62,1.586358064516129,1.5394999999999999,0.3880593551644113,100,64,61,0.953125,0.3774065573770492,0.3563,0.1124471488727815,2.6750631490317147
748,35,34,0.5666666666666667,2.5629029411764708,2.1797500000000003,1.120720824179092,0.2599686508391635,2022-01-20,62,61,1.8473688524590164,1.7078,0.5937139253717466,98.38709677419355,64,64,1,0.3302265625,0.32695,0.050115597300221186,3.0585716470408317
749,27,27,0.45,3.2557407407407406,3.0835,1.2920324466809467,0.1459380574023026,2022-01-19,62,60,3.3349016666666667,2.59985,1.9593739026373085,96.7741935483871,64,32,0.5,2.3453125,1.4715500000000001,3.4224448227838526,0.3397777853283952
750,37,34,0.5666666666666667,2.3262088235294116,2.0631500000000003,0.837617441197695,0.2746609149439772,2022-01-20,62,62,1.579774193548387,1.50295,0.3443180544232295,100,64,62,0.96875,0.3714677419354839,0.3518,0.08654477998330426,2.753695281409892
751,53,53,0.8833333333333333,1.687166037735849,1.6326,0.31676081667123746,0.5410592510923271,2022-01-18,62,62,1.5079693548387096,1.48285,0.26621416719620766,100,64,63,0.984375,0.3473920634920635,0.3339,0.0769469890869311,2.94811320754717
752,51,51,0.85,1.7449019607843137,1.614,0.3816363847906518,0.5266418835192069,2022-01-18,62,61,1.5424426229508197,1.471,0.30679474814008595,98.38709677419355,64,63,0.984375,0.3752634920634921,0.3326,0.12857413864982448,2.959636199639206
753,45,45,0.75,1.93812,1.7965,0.5067688331702406,0.41747843028110215,2022-01-20,62,61,1.735527868852459,1.6361,0.5135559525281049,98.38709677419355,64,63,0.984375,0.3380142857142857,0.3324,0.043631613491281,2.9614169675090256
754,50,45,0.75,1.7659622222222222,1.5676,0.6298782913781796,0.4784383771370247,2022-01-18,62,60,1.53317,1.3676499999999998,0.4947822566115595,96.7741935483871,64,58,0.90625,0.363501724137931,0.35050000000000003,0.058795460176157076,2.585592011412268
755,48,48,0.8,1.8612083333333334,1.7530000000000001,0.3957341122378161,0.45636052481460354,2022-01-19,62,62,1.7433064516129033,1.697,0.3510948024188954,100,64,62,0.96875,0.4211451612903226,0.3885,0.11667481034758828,2.4935649935649935
756,42,38,0.6333333333333333,2.0046763157894736,1.8989500000000001,0.4913989315865859,0.3335176457164924,2022-01-18,62,62,1.9081645161290322,1.7822,0.4653941213943838,100,64,64,1,0.468409375,0.43345,0.19539715495544588,2.3070711731456917
758,41,41,0.6833333333333333,2.183187804878049,2.1991,0.43535335142566783,0.3107331787246298,2022-01-18,62,62,2.228190322580645,1.7662499999999999,2.7287774598069943,100,64,63,0.984375,0.38892539682539684,0.3571,0.10351754560374708,2.7565807896947634
761,22,20,0.3333333333333333,3.4260800000000002,2.4387999999999996,2.2171733010631733,0.13667924115685312,2022-01-20,62,61,1.7522868852459017,1.6805,0.3896086003822338,98.38709677419355,64,61,0.953125,0.3616360655737705,0.349,0.10551089838303734,2.7310171919770774
762,48,46,0.7666666666666667,1.846008695652174,1.7063,0.5056173444748672,0.4493152825802419,2022-01-18,62,62,1.4137903225806452,1.3869,0.27164151081271715,100,64,64,1,0.32545625,0.31245,0.07130475812837479,3.2005120819331094
763,45,44,0.7333333333333333,1.9691818181818181,1.7730000000000001,0.6009407846356226,0.41361158112427143,2022-01-18,62,62,1.5865645161290323,1.5065,0.29666632030869244,100,64,64,1,0.33796875,0.315,0.07728713085137845,3.1746031746031744
764,35,35,0.5833333333333334,2.5403685714285715,2.468,0.5608711285194867,0.23635872501350624,2022-01-18,62,62,2.1514258064516127,2.10765,0.45276878619151617,100,64,64,1,0.491628125,0.4666,0.12057477752086608,2.1431633090441493
767,29,27,0.45,2.994814814814815,2.1832,1.6570194487748882,0.2061194576768047,2022-01-18,62,60,1.9244733333333333,1.74965,0.9162167711951191,96.7741935483871,64,60,0.9375,0.33919666666666665,0.31735,0.08311938517632572,2.954151567669765
769,48,47,0.7833333333333333,1.8759659574468086,1.6985,0.6281675469783364,0.4611912471788834,2022-01-18,62,62,1.4221467741935483,1.3995,0.2269880077122166,100,64,64,1,0.373146875,0.3583,0.06361447366693083,2.790957298353335
770,40,39,0.65,2.2550179487179487,1.8866,1.1816413043042235,0.34453514258454365,2022-01-18,62,62,2.0387016129032256,1.9157,0.6222911804581877,100,64,62,0.96875,0.4396241935483871,0.3441,0.3455118553566026,2.815315315315315
771,24,22,0.36666666666666664,3.614890909090909,2.8931,2.3428187206885336,0.12673833143225835,2022-01-20,62,62,1.6948983870967742,1.6317499999999998,0.35127544443955705,100,64,64,1,0.391725,0.37825,0.0821491732561361,2.6437541308658297
772,60,59,0.9833333333333333,1.4739322033898306,1.382,0.3337428735856382,0.7115291847563917,2022-01-18,62,61,1.235032786885246,1.15,0.3045615956974394,98.38709677419355,64,63,0.984375,0.34915873015873017,0.346,0.05109548504427648,2.845014450867052
773,49,48,0.8,1.8002458333333333,1.7085,0.30877811765038704,0.4682470002926544,2022-01-18,62,61,1.5351983606557378,1.4659,0.34286356105201343,98.38709677419355,64,62,0.96875,0.3751758064516129,0.35735,0.07816009145900454,2.7109276619560654
774,42,41,0.6833333333333333,2.061751219512195,1.7284,0.9556623606488726,0.39535601326853353,2022-01-18,62,62,1.4830403225806452,1.4149,0.27364925645897525,100,64,63,0.984375,0.3627888888888889,0.3378,0.0878379815545885,2.914076376554174
775,36,33,0.55,2.3847242424242423,2.0815,0.8378667115173747,0.2642325246216671,2022-01-18,62,62,1.7486693548387096,1.6640000000000001,0.39507175674794176,100,64,60,0.9375,0.3912583333333333,0.38455,0.08770285404332423,2.4379144454557276
776,37,36,0.6,2.3719444444444444,2.2866999999999997,0.76319228037592,0.2623868456728036,2022-01-20,62,62,1.6953548387096775,1.5489,0.5059780782128223,100,64,62,0.96875,0.3934145161290323,0.36845,0.11131341640194817,2.6292577011806215
777,34,32,0.5333333333333333,2.63085625,2.3007,1.337772165359741,0.23181350603439532,2022-01-19,62,62,1.856166129032258,1.7167,0.5578687676763275,100,64,58,0.90625,0.4988362068965517,0.3304,1.1421204391122644,2.7428874092009683
779,27,27,0.45,3.151348148148148,2.3987,2.432174301125257,0.18760161754283572,2022-01-17,62,61,1.6532147540983606,1.582,0.36923871810165737,98.38709677419355,64,64,1,0.3999546875,0.313,0.6089118157358734,3.194888178913738
782,60,60,1,1.46426,1.39865,0.2895922868623567,0.7149751546133772,2022-01-19,62,61,1.2443016393442623,1.1823,0.1628355975534867,98.38709677419355,64,64,1,0.3171171875,0.31189999999999996,0.032938613200669715,3.206155819172812
784,48,47,0.7833333333333333,1.8406595744680851,1.749,0.5462827455749069,0.44787497617686295,2022-01-22,62,58,1.2975172413793103,1.2415,0.2878617627166931,93.54838709677419,64,62,0.96875,0.30529032258064515,0.297,0.09693472319323955,3.261784511784512
7852,45,45,0.75,1.9960022222222222,1.8496,0.466525640671593,0.4054930795847751,2022-02-25,62,62,1.7763741935483872,1.71675,0.2904262644128701,100,64,64,1,0.4265296875,0.4037,0.08136355347956127,2.477086945751796
786,34,34,0.5666666666666667,2.573058823529412,2.1155,1.7588630270575618,0.2678641771054912,2022-01-16,62,62,1.7023387096774194,1.574,0.4852256174074816,100,64,62,0.96875,0.3699516129032258,0.3585,0.07585500133059186,2.702231520223152
789,47,47,0.7833333333333333,1.889863829787234,1.7656,0.4174009908248129,0.443664099078689,2022-01-17,62,62,1.7782725806451614,1.6944,0.37607303753888405,100,64,63,0.984375,0.4677190476190476,0.3995,0.3595294782912364,2.464017521902378
790,37,32,0.5333333333333333,2.13086875,1.84855,0.9524880798297384,0.28851442121302284,2022-01-16,62,59,1.3264898305084747,1.2418,0.4569913228991807,95.16129032258065,64,62,0.96875,0.30491612903225807,0.29535,0.1054618588401317,3.2800067716268835
792,36,35,0.5833333333333334,2.3412914285714286,2.1682,0.9337327938005003,0.2690403714294499,2022-01-26,62,62,1.7914354838709678,1.66295,0.49723396218126864,100,64,63,0.984375,0.39768888888888887,0.3842,0.08587808333406502,2.5621421134825613
793,37,37,0.6166666666666667,2.397245945945946,2.3303,0.7267185400424578,0.2646297329385344,2022-01-16,62,62,1.8997177419354838,1.69805,0.8657531379726972,100,64,62,0.96875,0.2929338709677419,0.28595000000000004,0.054018660842307,3.3878300402168207
794,36,34,0.5666666666666667,2.2547382352941177,1.84595,1.143960499163007,0.30697833996948276,2022-01-15,62,62,2.3112306451612903,1.76105,2.441354953580766,100,64,62,0.96875,0.4206661290322581,0.36685,0.2940526399532207,2.640725091999455
795,49,48,0.8,1.76221875,1.6593,0.45764433912189834,0.48213101910444167,2022-01-16,62,62,1.482066129032258,1.4231,0.2757983005829479,100,64,61,0.953125,0.3261360655737705,0.2922,0.1073103894205758,3.2618925393566047
796,46,46,0.7666666666666667,1.939195652173913,1.7075,0.6482937818120978,0.44899951195705223,2022-01-15,62,61,1.7350655737704919,1.666,0.3994822427781765,98.38709677419355,64,61,0.953125,0.4465737704918033,0.373,0.19398706649468445,2.55529490616622
797,39,39,0.65,2.1917589743589745,2.0137,0.8395386896567064,0.32278889606197547,2022-01-16,62,62,1.7961677419354838,1.7511,0.29832897166685163,100,64,63,0.984375,0.41506190476190474,0.3592,0.18871458773004227,2.740464922048998
800,39,38,0.6333333333333333,2.2986315789473686,2.0905,0.7691931336235757,0.30295782508171887,2022-01-17,62,61,1.7665081967213114,1.666,0.3937974362093122,98.38709677419355,64,63,0.984375,0.4008888888888889,0.374,0.1370876939856161,2.63201871657754
8014,32,30,0.5,2.6835933333333335,1.9261,1.6142088836188528,0.25959192149940297,2022-02-14,62,62,1.4159725806451613,1.3995,0.2823819069398774,100,64,62,0.96875,0.3185483870967742,0.30135,0.08257352559085408,3.2147005143520824
802,27,25,0.4166666666666667,3.291892,2.7313,2.0191406177133877,0.15255250857345098,2022-01-15,62,62,1.8550709677419355,1.8149,0.341464330464217,100,64,64,1,0.4473953125,0.43695,0.09186606957731096,2.2885913720105275
803,35,29,0.48333333333333334,2.5335,2.224,1.0337727554931984,0.217326139088729,2022-01-18,62,59,2.106613559322034,1.73,1.5038331406726577,95.16129032258065,64,63,0.984375,0.3947555555555556,0.3661,0.13144863559308312,2.6888145315487573
804,52,51,0.85,1.7273392156862746,1.5986,0.4613063542065864,0.5317152508444889,2022-01-16,62,61,1.4749819672131148,1.349,0.4500454190072362,98.38709677419355,64,62,0.96875,0.3161338709677419,0.3093,0.043243598762710424,3.1320724215971545
805,28,27,0.45,2.9656481481481483,2.5961,1.4758221886774139,0.17333692846962753,2022-01-20,62,61,1.9148360655737706,1.8968,0.46466546246835366,98.38709677419355,64,63,0.984375,0.42120793650793653,0.4008,0.08960834548833715,2.4560254491017965
806,43,41,0.6833333333333333,2.028790243902439,1.8321,0.6729248634895572,0.372978185324673,2022-01-15,62,62,1.5630016129032258,1.4664,0.4141450076656787,100,64,63,0.984375,0.3536095238095238,0.3494,0.07311673105006135,2.8173297080709787
808,46,42,0.7,1.9502738095238097,1.7236500000000001,0.7091358392900625,0.4061149305253386,2022-01-14,62,60,1.4213433333333334,1.3495,0.380978018124124,96.7741935483871,64,64,1,0.3066609375,0.3036,0.04389415702948815,3.293807641633729
810,25,24,0.4,3.605316666666667,2.6926500000000004,2.737840143119273,0.1485525411769075,2022-01-15,62,62,1.776691935483871,1.6483,0.4538067882716591,100,64,62,0.96875,0.35113064516129033,0.3127,0.15097120297409633,3.0980172689478738
811,33,30,0.5,2.657626666666667,2.4951,1.0847500639932377,0.2003927698288646,2022-01-14,62,61,1.9816426229508197,1.8828,0.565865120400912,98.38709677419355,64,63,0.984375,0.40168095238095236,0.3916,0.1077403372767029,2.513725740551583
8116,48,46,0.7666666666666667,1.8695,1.6560000000000001,0.7711017154406775,0.46296296296296297,2022-01-27,62,60,1.3242333333333334,1.231,0.264462510025598,96.7741935483871,64,62,0.96875,0.3154193548387097,0.314,0.062030544667188686,3.085191082802548
812,42,40,0.6666666666666666,2.08928,1.8241,0.8242629164818586,0.36547703890503075,2022-01-14,62,61,1.5273196721311475,1.4323,0.33480222162727263,98.38709677419355,64,64,1,0.3825484375,0.33935000000000004,0.1513381056434303,2.9468100780904667
8128,38,37,0.6166666666666667,2.195254054054054,1.9665,0.7682617300672251,0.31358589710992457,2022-01-19,62,62,1.6349145161290322,1.59905,0.3320266885612889,100,64,62,0.96875,0.3766774193548387,0.32675,0.13972264261316014,2.964804896710023
813,36,36,0.6,2.445,1.9983,1.248080567683261,0.3002552169343942,2022-01-14,62,61,2.0477147540983607,1.8484,0.9874190523508015,98.38709677419355,64,63,0.984375,0.4013047619047619,0.3842,0.09878900361387921,2.5621421134825613
814,20,18,0.3,4.199433333333333,3.3999,2.845699134400791,0.08823788934968675,2022-01-16,62,61,2.143529508196721,1.9483,0.692307134958722,98.38709677419355,64,61,0.953125,0.41168524590163935,0.3821,0.11676999020305627,2.4944386286312485
815,44,44,0.7333333333333333,2.039475,1.8058,0.7081423599239102,0.4060988666149813,2022-01-17,62,61,1.5108016393442623,1.4148,0.3299736365690464,98.38709677419355,64,61,0.953125,0.3236918032786885,0.3059,0.06748430260705564,3.1158058188950637
8158,31,30,0.5,2.8761200000000002,2.30295,1.814735628774844,0.21711283353959052,2022-02-22,62,61,1.7288540983606557,1.5821,0.42898283165870804,98.38709677419355,64,62,0.96875,0.3419564516129032,0.33245,0.0622971110057405,2.9139720258685515
816,38,37,0.6166666666666667,2.232618918918919,1.9211,1.196065067404556,0.3209966512241251,2022-01-22,62,62,1.4501274193548388,1.41655,0.28348878901668956,100,64,64,1,0.3643359375,0.34125,0.0954420897587634,2.93040293040293
817,27,26,0.43333333333333335,3.2739653846153844,2.91265,1.309128708093229,0.14877631481068213,2022-01-13,62,62,1.7906935483870967,1.69045,0.4586718241322179,100,64,63,0.984375,0.37461428571428573,0.352,0.11455985033490472,2.7965198863636367
818,30,30,0.5,2.9894933333333333,2.2977,1.5390014012526014,0.2176089132610872,2022-01-14,62,62,2.436716129032258,2.2243500000000003,0.9884032772224678,100,64,63,0.984375,0.3901301587301587,0.3712,0.09670668261747802,2.651872306034483
819,38,37,0.6166666666666667,2.348262162162162,2.1436,1.0465707446362758,0.2876780493873235,2022-01-13,62,62,1.6834774193548387,1.6634,0.31784119935330263,100,64,62,0.96875,0.4514032258064516,0.37915,0.36927078072549985,2.555057365158908
820,52,48,0.8,1.7281875,1.5459,0.4702992698747053,0.5174978976647907,2022-01-14,62,55,1.4366454545454546,1.3574,0.3296127670903483,88.70967741935483,64,64,1,0.3163046875,0.3012,0.04616761535792489,3.3200531208499333
823,37,33,0.55,2.1886939393939393,1.932,1.045323682508017,0.28467908902691513,2022-01-12,62,62,1.6341951612903225,1.58445,0.28304975142098565,100,64,64,1,0.37285625,0.36475,0.059983658819688764,2.7416038382453736
824,27,25,0.4166666666666667,2.713632,2.3694,1.0554402401841614,0.17585323992009227,2022-01-12,62,52,2.8405423076923078,1.7399499999999999,3.123433640468492,83.87096774193549,64,64,1,0.4192109375,0.40725,0.05471166010539339,2.4554941682013505
825,29,28,0.4666666666666667,2.9068535714285715,2.65055,1.316732422403654,0.17606408732778733,2022-01-12,62,62,1.8628870967741935,1.79375,0.3583544305063971,100,64,63,0.984375,0.3995095238095238,0.3743,0.11888776180849778,2.629909163772375
8254,26,25,0.4166666666666667,3.2102600000000003,2.6503,2.0878098512556167,0.1572149064885736,2022-01-24,62,61,1.7891819672131148,1.7319,0.39651329044904954,98.38709677419355,64,63,0.984375,0.3476,0.3381,0.07870449632603897,2.9114906832298137
8257,29,27,0.45,2.995014814814815,2.4637,1.8371140736960456,0.1826521086171206,2022-01-24,62,62,1.9088532258064517,1.85595,0.3826592799052707,100,64,63,0.984375,0.40346190476190474,0.3818,0.11551569287131154,2.57824777370351
827,33,30,0.5,2.65224,2.5195,0.7589881342946014,0.1984520738241715,2022-01-11,62,61,1.7187540983606557,1.6329,0.34283298342573487,98.38709677419355,64,61,0.953125,0.33154098360655737,0.3172,0.08232614687337429,3.0048076923076925
830,37,36,0.6,2.3034055555555555,1.76525,2.008404132488485,0.3398951989803144,2022-01-12,62,62,1.5769435483870968,1.4910999999999999,0.3084651674790174,100,64,64,1,0.3863359375,0.34115,0.27537645884283823,2.931261908251502
831,48,48,0.8,1.8625166666666666,1.7891,0.4514249865035346,0.447152199429881,2022-01-11,62,62,1.6604564516129032,1.6367,0.29482185708781966,100,64,59,0.921875,0.38018135593220337,0.3469,0.09433048740095731,2.6574661285673105
832,37,36,0.6,2.404661111111111,1.8494000000000002,1.5346975084505885,0.32442954471720553,2022-01-12,62,62,1.5123435483870968,1.44115,0.33112508686962344,100,64,62,0.96875,0.40326774193548387,0.3901,0.08431504693161151,2.4833376057421175
8380,21,18,0.3,4.1387777777777774,3.0060000000000002,2.259258976784867,0.09980039920159679,2022-02-10,62,62,1.8341129032258063,1.631,0.7668100221011145,100,64,63,0.984375,0.43422222222222223,0.4201,0.13003788460941584,2.3431920971197338
8389,45,45,0.75,1.9807244444444445,1.8495,0.6576277090475058,0.40551500405515006,2022-02-22,62,61,1.9258786885245902,1.7496,0.7172291898026169,98.38709677419355,64,62,0.96875,0.33334838709677417,0.309,0.10421311824213564,3.135113268608414
